,ACC_x,ACC_y,ACC_z,GYR_x,GYR_y,GYR_z,Q_0,Q_1,Q_2,Q_3,Pitch,Yaw,ACC_x,ACC_y,ACC_z,GYR_x,GYR_y,GYR_z,Q_0,Q_1,Q_2,Q_3,Pitch,Yaw,ACC_x,ACC_y,ACC_z,GYR_x,GYR_y,GYR_z,Q_0,Q_1,Q_2,Q_3,Pitch,Yaw
10,0.978027,0.048340,0.253906,3.906250,4.028320,0.122070,-0.184967,-0.602356,0.115570,-0.767822,-75.437622,144.854736,1.002930,-0.066895,-0.162598,-0.183105,0.000000,-0.122070,0.073914,-0.759277,-0.034180,-0.645599,-80.227661,-14.875488,0.992188,0.126465,0.032227,-0.122070,-0.732422,0.427246,-0.216370,0.631622,0.295166,0.683411,-82.348022,144.585571
20,0.978027,0.048340,0.253906,3.906250,4.028320,0.122070,-0.184448,-0.601715,0.114563,-0.768585,-75.316772,144.953613,1.005859,-0.069336,-0.165527,0.427246,0.305176,-0.366211,0.073883,-0.759277,-0.034180,-0.645630,-80.233154,-14.864502,1.000977,0.131348,0.027832,0.549316,0.000000,-0.366211,-0.216339,0.631592,0.295288,0.683411,-82.342529,144.558105
30,0.978027,0.048340,0.253906,3.906250,4.028320,0.122070,-0.184448,-0.601715,0.114563,-0.768585,-75.316772,144.953613,1.005859,-0.069336,-0.165527,0.427246,0.305176,-0.366211,0.073883,-0.759277,-0.034180,-0.645630,-80.233154,-14.864502,1.000977,0.131348,0.027832,0.549316,0.000000,-0.366211,-0.216339,0.631592,0.295288,0.683411,-82.342529,144.558105
40,0.978027,0.048340,0.253906,3.906250,4.028320,0.122070,-0.184448,-0.601715,0.114563,-0.768585,-75.316772,144.953613,1.005859,-0.069336,-0.165527,0.427246,0.305176,-0.366211,0.073883,-0.759277,-0.034180,-0.645630,-80.233154,-14.864502,1.000977,0.131348,0.027832,0.549316,0.000000,-0.366211,-0.216339,0.631592,0.295288,0.683411,-82.342529,144.558105
50,0.977539,0.051270,0.253906,3.601074,3.295898,-0.183105,-0.183838,-0.601135,0.113403,-0.769348,-75.195923,145.025024,1.011230,-0.070312,-0.163086,0.122070,-0.122070,-0.488281,0.073914,-0.759247,-0.034363,-0.645630,-80.238647,-14.782104,0.993652,0.130371,0.029785,0.000000,0.000000,-0.305176,-0.216248,0.631531,0.295349,0.683472,-82.326050,144.541626
60,0.977539,0.051270,0.253906,3.601074,3.295898,-0.183105,-0.183838,-0.601135,0.113403,-0.769348,-75.195923,145.025024,1.011230,-0.070312,-0.163086,0.122070,-0.122070,-0.488281,0.073914,-0.759247,-0.034363,-0.645630,-80.238647,-14.782104,0.993652,0.130371,0.029785,0.000000,0.000000,-0.305176,-0.216248,0.631531,0.295349,0.683472,-82.326050,144.541626
70,0.977539,0.051270,0.253906,3.601074,3.295898,-0.183105,-0.183838,-0.601135,0.113403,-0.769348,-75.195923,145.025024,1.011230,-0.070312,-0.163086,0.122070,-0.122070,-0.488281,0.073914,-0.759247,-0.034363,-0.645630,-80.238647,-14.782104,0.993652,0.130371,0.029785,0.000000,0.000000,-0.305176,-0.216248,0.631531,0.295349,0.683472,-82.326050,144.541626
80,0.977539,0.054688,0.259766,3.112793,2.990723,-0.549316,-0.183411,-0.600708,0.112366,-0.769958,-75.097046,145.046997,1.007812,-0.077637,-0.162598,0.427246,-0.305176,-0.488281,0.073944,-0.759308,-0.034546,-0.645569,-80.233154,-14.699707,0.990234,0.128906,0.031738,1.098633,0.061035,-0.122070,-0.215973,0.631592,0.295105,0.683594,-82.320557,144.530640
90,0.977539,0.054688,0.259766,3.112793,2.990723,-0.549316,-0.183411,-0.600708,0.112366,-0.769958,-75.097046,145.046997,1.007812,-0.077637,-0.162598,0.427246,-0.305176,-0.488281,0.073944,-0.759308,-0.034546,-0.645569,-80.233154,-14.699707,0.990234,0.128906,0.031738,1.098633,0.061035,-0.122070,-0.215973,0.631592,0.295105,0.683594,-82.320557,144.530640
100,0.977539,0.054688,0.259766,3.112793,2.990723,-0.549316,-0.183411,-0.600708,0.112366,-0.769958,-75.097046,145.046997,1.007812,-0.077637,-0.162598,0.427246,-0.305176,-0.488281,0.073944,-0.759308,-0.034546,-0.645569,-80.233154,-14.699707,0.990234,0.128906,0.031738,1.098633,0.061035,-0.122070,-0.215973,0.631592,0.295105,0.683594,-82.320557,144.530640
110,0.977539,0.054688,0.259766,3.112793,2.990723,-0.549316,-0.183411,-0.600708,0.112366,-0.769958,-75.097046,145.046997,1.007812,-0.077637,-0.162598,0.427246,-0.305176,-0.488281,0.073944,-0.759308,-0.034546,-0.645569,-80.233154,-14.699707,0.990234,0.128906,0.031738,1.098633,0.061035,-0.122070,-0.215973,0.631592,0.295105,0.683594,-82.320557,144.530640
120,0.977051,0.056152,0.260742,2.624512,2.807617,-0.732422,-0.183014,-0.600220,0.111389,-0.770508,-74.987183,145.041504,1.000488,-0.072754,-0.146973,1.892090,0.000000,-0.183105,0.074402,-0.759186,-0.035034,-0.645599,-80.244141,-14.661255,0.997070,0.127930,0.033691,-0.061035,-0.244141,-0.305176,-0.215820,0.631622,0.295074,0.683624,-82.309570,144.492188
130,0.977051,0.056152,0.260742,2.624512,2.807617,-0.732422,-0.183014,-0.600220,0.111389,-0.770508,-74.987183,145.041504,1.000488,-0.072754,-0.146973,1.892090,0.000000,-0.183105,0.074402,-0.759186,-0.035034,-0.645599,-80.244141,-14.661255,0.997070,0.127930,0.033691,-0.061035,-0.244141,-0.305176,-0.215820,0.631622,0.295074,0.683624,-82.309570,144.492188
140,0.977051,0.056152,0.260742,2.624512,2.807617,-0.732422,-0.183014,-0.600220,0.111389,-0.770508,-74.987183,145.041504,1.000488,-0.072754,-0.146973,1.892090,0.000000,-0.183105,0.074402,-0.759186,-0.035034,-0.645599,-80.244141,-14.661255,0.997070,0.127930,0.033691,-0.061035,-0.244141,-0.305176,-0.215820,0.631622,0.295074,0.683624,-82.309570,144.492188
150,0.977051,0.056152,0.260742,2.624512,2.807617,-0.732422,-0.182739,-0.599792,0.110291,-0.771118,-74.893799,145.014038,1.013672,-0.068359,-0.161133,0.854492,-0.427246,-0.366211,0.074707,-0.759186,-0.035431,-0.645569,-80.249634,-14.600830,0.998535,0.138672,0.030762,1.159668,-0.122070,-0.183105,-0.215820,0.631622,0.295135,0.683594,-82.309570,144.475708
160,0.977051,0.056152,0.260742,2.624512,2.807617,-0.732422,-0.182739,-0.599792,0.110291,-0.771118,-74.893799,145.014038,1.013672,-0.068359,-0.161133,0.854492,-0.427246,-0.366211,0.074707,-0.759186,-0.035431,-0.645569,-80.249634,-14.600830,0.998535,0.138672,0.030762,1.159668,-0.122070,-0.183105,-0.215820,0.631622,0.295135,0.683594,-82.309570,144.475708
170,0.977051,0.056152,0.260742,2.624512,2.807617,-0.732422,-0.182739,-0.599792,0.110291,-0.771118,-74.893799,145.014038,1.013672,-0.068359,-0.161133,0.854492,-0.427246,-0.366211,0.074707,-0.759186,-0.035431,-0.645569,-80.249634,-14.600830,0.998535,0.138672,0.030762,1.159668,-0.122070,-0.183105,-0.215820,0.631622,0.295135,0.683594,-82.309570,144.475708
180,0.974121,0.056152,0.265625,2.136230,2.502441,-0.732422,-0.182556,-0.599396,0.109497,-0.771576,-74.811401,144.986572,1.010742,-0.062500,-0.159668,0.671387,0.183105,-0.305176,0.074554,-0.759155,-0.035400,-0.645599,-80.249634,-14.551392,1.000000,0.129883,0.029297,0.549316,-0.244141,-0.305176,-0.215851,0.631592,0.295258,0.683563,-82.304077,144.437256
190,0.974121,0.056152,0.265625,2.136230,2.502441,-0.732422,-0.182556,-0.599396,0.109497,-0.771576,-74.811401,144.986572,1.010742,-0.062500,-0.159668,0.671387,0.183105,-0.305176,0.074554,-0.759155,-0.035400,-0.645599,-80.249634,-14.551392,1.000000,0.129883,0.029297,0.549316,-0.244141,-0.305176,-0.215851,0.631592,0.295258,0.683563,-82.304077,144.437256
200,0.974121,0.056152,0.265625,2.136230,2.502441,-0.732422,-0.182556,-0.599396,0.109497,-0.771576,-74.811401,144.986572,1.010742,-0.062500,-0.159668,0.671387,0.183105,-0.305176,0.074554,-0.759155,-0.035400,-0.645599,-80.249634,-14.551392,1.000000,0.129883,0.029297,0.549316,-0.244141,-0.305176,-0.215851,0.631592,0.295258,0.683563,-82.304077,144.437256
210,0.974609,0.055176,0.266602,1.770020,2.197266,-0.610352,-0.182373,-0.598969,0.108704,-0.772064,-74.718018,144.959106,1.005859,-0.069336,-0.161621,0.610352,0.183105,-0.183105,0.074493,-0.759125,-0.035461,-0.645630,-80.260620,-14.501953,0.990723,0.131348,0.027832,0.061035,-0.305176,-0.366211,-0.215851,0.631592,0.295441,0.683502,-82.293091,144.376831
220,0.974609,0.055176,0.266602,1.770020,2.197266,-0.610352,-0.182373,-0.598969,0.108704,-0.772064,-74.718018,144.959106,1.005859,-0.069336,-0.161621,0.610352,0.183105,-0.183105,0.074493,-0.759125,-0.035461,-0.645630,-80.260620,-14.501953,0.990723,0.131348,0.027832,0.061035,-0.305176,-0.366211,-0.215851,0.631592,0.295441,0.683502,-82.293091,144.376831
230,0.974609,0.055176,0.266602,1.770020,2.197266,-0.610352,-0.182373,-0.598969,0.108704,-0.772064,-74.718018,144.959106,1.005859,-0.069336,-0.161621,0.610352,0.183105,-0.183105,0.074493,-0.759125,-0.035461,-0.645630,-80.260620,-14.501953,0.990723,0.131348,0.027832,0.061035,-0.305176,-0.366211,-0.215851,0.631592,0.295441,0.683502,-82.293091,144.376831
240,0.973145,0.055664,0.266602,1.586914,1.770020,-0.488281,-0.182251,-0.598663,0.108124,-0.772430,-74.652100,144.937134,1.007812,-0.075195,-0.167969,0.244141,0.427246,-0.183105,0.074646,-0.759125,-0.035614,-0.645630,-80.260620,-14.479980,0.995605,0.127930,0.021484,0.244141,0.122070,-0.366211,-0.215912,0.631500,0.295654,0.683441,-82.282104,144.338379
250,0.973145,0.055664,0.266602,1.586914,1.770020,-0.488281,-0.182251,-0.598663,0.108124,-0.772430,-74.652100,144.937134,1.007812,-0.075195,-0.167969,0.244141,0.427246,-0.183105,0.074646,-0.759125,-0.035614,-0.645630,-80.260620,-14.479980,0.995605,0.127930,0.021484,0.244141,0.122070,-0.366211,-0.215912,0.631500,0.295654,0.683441,-82.282104,144.338379
260,0.973145,0.055664,0.266602,1.586914,1.770020,-0.488281,-0.182251,-0.598663,0.108124,-0.772430,-74.652100,144.937134,1.007812,-0.075195,-0.167969,0.244141,0.427246,-0.183105,0.074646,-0.759125,-0.035614,-0.645630,-80.260620,-14.479980,0.995605,0.127930,0.021484,0.244141,0.122070,-0.366211,-0.215912,0.631500,0.295654,0.683441,-82.282104,144.338379
270,0.973145,0.055664,0.266602,1.586914,1.770020,-0.488281,-0.182251,-0.598663,0.108124,-0.772430,-74.652100,144.937134,1.007812,-0.075195,-0.167969,0.244141,0.427246,-0.183105,0.074646,-0.759125,-0.035614,-0.645630,-80.260620,-14.479980,0.995605,0.127930,0.021484,0.244141,0.122070,-0.366211,-0.215912,0.631500,0.295654,0.683441,-82.282104,144.338379
280,0.973145,0.055176,0.266602,1.464844,1.586914,-0.366211,-0.182068,-0.598358,0.107483,-0.772797,-74.586182,144.920654,1.004883,-0.060547,-0.165527,0.244141,0.366211,-0.488281,0.074432,-0.759125,-0.035553,-0.645660,-80.266113,-14.447021,0.995605,0.135254,0.024414,-0.488281,0.122070,-0.671387,-0.215973,0.631378,0.295929,0.683441,-82.265625,144.338379
290,0.973145,0.055176,0.266602,1.464844,1.586914,-0.366211,-0.182068,-0.598358,0.107483,-0.772797,-74.586182,144.920654,1.004883,-0.060547,-0.165527,0.244141,0.366211,-0.488281,0.074432,-0.759125,-0.035553,-0.645660,-80.266113,-14.447021,0.995605,0.135254,0.024414,-0.488281,0.122070,-0.671387,-0.215973,0.631378,0.295929,0.683441,-82.265625,144.338379
300,0.973145,0.055176,0.266602,1.464844,1.586914,-0.366211,-0.182068,-0.598358,0.107483,-0.772797,-74.586182,144.920654,1.004883,-0.060547,-0.165527,0.244141,0.366211,-0.488281,0.074432,-0.759125,-0.035553,-0.645660,-80.266113,-14.447021,0.995605,0.135254,0.024414,-0.488281,0.122070,-0.671387,-0.215973,0.631378,0.295929,0.683441,-82.265625,144.338379
310,0.973145,0.055176,0.266602,1.464844,1.586914,-0.366211,-0.181946,-0.598083,0.107025,-0.773102,-74.536743,144.915161,1.004883,-0.057129,-0.165527,-0.854492,0.244141,-0.244141,0.073639,-0.759155,-0.034973,-0.645752,-80.277100,-14.397583,0.996582,0.131348,0.029297,-1.159668,0.061035,-0.610352,-0.215576,0.631409,0.295746,0.683624,-82.243652,144.338379
320,0.973145,0.055176,0.266602,1.464844,1.586914,-0.366211,-0.181946,-0.598083,0.107025,-0.773102,-74.536743,144.915161,1.004883,-0.057129,-0.165527,-0.854492,0.244141,-0.244141,0.073639,-0.759155,-0.034973,-0.645752,-80.277100,-14.397583,0.996582,0.131348,0.029297,-1.159668,0.061035,-0.610352,-0.215576,0.631409,0.295746,0.683624,-82.243652,144.338379
330,0.973145,0.055176,0.266602,1.464844,1.586914,-0.366211,-0.181946,-0.598083,0.107025,-0.773102,-74.536743,144.915161,1.004883,-0.057129,-0.165527,-0.854492,0.244141,-0.244141,0.073639,-0.759155,-0.034973,-0.645752,-80.277100,-14.397583,0.996582,0.131348,0.029297,-1.159668,0.061035,-0.610352,-0.215576,0.631409,0.295746,0.683624,-82.243652,144.338379
340,0.973145,0.055176,0.268066,1.342773,1.586914,-0.244141,-0.181793,-0.597778,0.106506,-0.773438,-74.470825,144.926147,1.006348,-0.075684,-0.157715,-1.403809,0.610352,-0.488281,0.073212,-0.759064,-0.034760,-0.645905,-80.299072,-14.381104,0.999023,0.132812,0.027344,-0.915527,0.366211,-0.671387,-0.215271,0.631348,0.295654,0.683807,-82.221680,144.354858
350,0.973145,0.055176,0.268066,1.342773,1.586914,-0.244141,-0.181793,-0.597778,0.106506,-0.773438,-74.470825,144.926147,1.006348,-0.075684,-0.157715,-1.403809,0.610352,-0.488281,0.073212,-0.759064,-0.034760,-0.645905,-80.299072,-14.381104,0.999023,0.132812,0.027344,-0.915527,0.366211,-0.671387,-0.215271,0.631348,0.295654,0.683807,-82.221680,144.354858
360,0.973145,0.055176,0.268066,1.342773,1.586914,-0.244141,-0.181793,-0.597778,0.106506,-0.773438,-74.470825,144.926147,1.006348,-0.075684,-0.157715,-1.403809,0.610352,-0.488281,0.073212,-0.759064,-0.034760,-0.645905,-80.299072,-14.381104,0.999023,0.132812,0.027344,-0.915527,0.366211,-0.671387,-0.215271,0.631348,0.295654,0.683807,-82.221680,144.354858
370,0.973145,0.055176,0.268066,1.342773,1.586914,-0.244141,-0.181793,-0.597778,0.106506,-0.773438,-74.470825,144.926147,1.006348,-0.075684,-0.157715,-1.403809,0.610352,-0.488281,0.073212,-0.759064,-0.034760,-0.645905,-80.299072,-14.381104,0.999023,0.132812,0.027344,-0.915527,0.366211,-0.671387,-0.215271,0.631348,0.295654,0.683807,-82.221680,144.354858
380,0.972656,0.055664,0.268555,1.159668,1.525879,-0.244141,-0.181671,-0.597473,0.106049,-0.773773,-74.415894,144.931641,1.007812,-0.070312,-0.156738,-1.403809,0.122070,-0.305176,0.073059,-0.759033,-0.034729,-0.645996,-80.315552,-14.342651,0.992188,0.131836,0.033203,-1.586914,0.061035,-0.793457,-0.214783,0.631378,0.295349,0.684052,-82.194214,144.376831
390,0.972656,0.055664,0.268555,1.159668,1.525879,-0.244141,-0.181671,-0.597473,0.106049,-0.773773,-74.415894,144.931641,1.007812,-0.070312,-0.156738,-1.403809,0.122070,-0.305176,0.073059,-0.759033,-0.034729,-0.645996,-80.315552,-14.342651,0.992188,0.131836,0.033203,-1.586914,0.061035,-0.793457,-0.214783,0.631378,0.295349,0.684052,-82.194214,144.376831
400,0.972656,0.055664,0.268555,1.159668,1.525879,-0.244141,-0.181671,-0.597473,0.106049,-0.773773,-74.415894,144.931641,1.007812,-0.070312,-0.156738,-1.403809,0.122070,-0.305176,0.073059,-0.759033,-0.034729,-0.645996,-80.315552,-14.342651,0.992188,0.131836,0.033203,-1.586914,0.061035,-0.793457,-0.214783,0.631378,0.295349,0.684052,-82.194214,144.376831
410,0.971680,0.055176,0.267578,0.976562,1.098633,-0.244141,-0.181580,-0.597290,0.105713,-0.773987,-74.371948,144.931641,0.997559,-0.072266,-0.148926,-1.037598,0.183105,-0.427246,0.072998,-0.758972,-0.034851,-0.646057,-80.326538,-14.282227,0.991211,0.129395,0.041992,-0.305176,-0.244141,-0.549316,-0.213989,0.631561,0.294739,0.684387,-82.172241,144.338379
420,0.971680,0.055176,0.267578,0.976562,1.098633,-0.244141,-0.181580,-0.597290,0.105713,-0.773987,-74.371948,144.931641,0.997559,-0.072266,-0.148926,-1.037598,0.183105,-0.427246,0.072998,-0.758972,-0.034851,-0.646057,-80.326538,-14.282227,0.991211,0.129395,0.041992,-0.305176,-0.244141,-0.549316,-0.213989,0.631561,0.294739,0.684387,-82.172241,144.338379
430,0.971680,0.055176,0.267578,0.976562,1.098633,-0.244141,-0.181580,-0.597290,0.105713,-0.773987,-74.371948,144.931641,0.997559,-0.072266,-0.148926,-1.037598,0.183105,-0.427246,0.072998,-0.758972,-0.034851,-0.646057,-80.326538,-14.282227,0.991211,0.129395,0.041992,-0.305176,-0.244141,-0.549316,-0.213989,0.631561,0.294739,0.684387,-82.172241,144.338379
440,0.971191,0.055176,0.264160,0.671387,0.366211,-0.244141,-0.181488,-0.597168,0.105438,-0.774139,-74.338989,144.920654,1.010742,-0.068359,-0.141602,0.366211,0.061035,-0.427246,0.073303,-0.758850,-0.035309,-0.646118,-80.343018,-14.210815,0.999023,0.137207,0.030273,0.488281,-0.183105,-0.488281,-0.213684,0.631622,0.294678,0.684479,-82.155762,144.244995
450,0.971191,0.055176,0.264160,0.671387,0.366211,-0.244141,-0.181488,-0.597168,0.105438,-0.774139,-74.338989,144.920654,1.010742,-0.068359,-0.141602,0.366211,0.061035,-0.427246,0.073303,-0.758850,-0.035309,-0.646118,-80.343018,-14.210815,0.999023,0.137207,0.030273,0.488281,-0.183105,-0.488281,-0.213684,0.631622,0.294678,0.684479,-82.155762,144.244995
460,0.971191,0.055176,0.264160,0.671387,0.366211,-0.244141,-0.181488,-0.597168,0.105438,-0.774139,-74.338989,144.920654,1.010742,-0.068359,-0.141602,0.366211,0.061035,-0.427246,0.073303,-0.758850,-0.035309,-0.646118,-80.343018,-14.210815,0.999023,0.137207,0.030273,0.488281,-0.183105,-0.488281,-0.213684,0.631622,0.294678,0.684479,-82.155762,144.244995
470,0.971191,0.055176,0.264160,0.671387,0.366211,-0.244141,-0.181396,-0.597168,0.105194,-0.774170,-74.333496,144.904175,1.016113,-0.065918,-0.159180,0.366211,-1.037598,-0.488281,0.073395,-0.758911,-0.035614,-0.646027,-80.343018,-14.084473,0.996094,0.136230,0.035156,0.000000,-0.183105,-0.549316,-0.213379,0.631683,0.294617,0.684540,-82.139282,144.151611
480,0.971191,0.055176,0.264160,0.671387,0.366211,-0.244141,-0.181396,-0.597168,0.105194,-0.774170,-74.333496,144.904175,1.016113,-0.065918,-0.159180,0.366211,-1.037598,-0.488281,0.073395,-0.758911,-0.035614,-0.646027,-80.343018,-14.084473,0.996094,0.136230,0.035156,0.000000,-0.183105,-0.549316,-0.213379,0.631683,0.294617,0.684540,-82.139282,144.151611
490,0.971191,0.055176,0.264160,0.671387,0.366211,-0.244141,-0.181396,-0.597168,0.105194,-0.774170,-74.333496,144.904175,1.016113,-0.065918,-0.159180,0.366211,-1.037598,-0.488281,0.073395,-0.758911,-0.035614,-0.646027,-80.343018,-14.084473,0.996094,0.136230,0.035156,0.000000,-0.183105,-0.549316,-0.213379,0.631683,0.294617,0.684540,-82.139282,144.151611
500,0.971191,0.055176,0.264160,0.671387,0.366211,-0.244141,-0.181396,-0.597168,0.105194,-0.774170,-74.333496,144.904175,1.016113,-0.065918,-0.159180,0.366211,-1.037598,-0.488281,0.073395,-0.758911,-0.035614,-0.646027,-80.343018,-14.084473,0.996094,0.136230,0.035156,0.000000,-0.183105,-0.549316,-0.213379,0.631683,0.294617,0.684540,-82.139282,144.151611
510,0.971191,0.055176,0.259766,0.366211,-0.366211,-0.183105,-0.181305,-0.597321,0.105072,-0.774109,-74.349976,144.871216,1.011719,-0.054199,-0.156250,0.305176,0.061035,-0.488281,0.073120,-0.758972,-0.035583,-0.645996,-80.337524,-13.969116,0.989258,0.137207,0.028809,-0.732422,-0.488281,-0.671387,-0.213074,0.631744,0.294617,0.684570,-82.122803,144.063721
520,0.971191,0.055176,0.259766,0.366211,-0.366211,-0.183105,-0.181305,-0.597321,0.105072,-0.774109,-74.349976,144.871216,1.011719,-0.054199,-0.156250,0.305176,0.061035,-0.488281,0.073120,-0.758972,-0.035583,-0.645996,-80.337524,-13.969116,0.989258,0.137207,0.028809,-0.732422,-0.488281,-0.671387,-0.213074,0.631744,0.294617,0.684570,-82.122803,144.063721
530,0.971191,0.055176,0.259766,0.366211,-0.366211,-0.183105,-0.181305,-0.597321,0.105072,-0.774109,-74.349976,144.871216,1.011719,-0.054199,-0.156250,0.305176,0.061035,-0.488281,0.073120,-0.758972,-0.035583,-0.645996,-80.337524,-13.969116,0.989258,0.137207,0.028809,-0.732422,-0.488281,-0.671387,-0.213074,0.631744,0.294617,0.684570,-82.122803,144.063721
540,0.971191,0.054688,0.262695,0.000000,-0.915527,-0.122070,-0.181274,-0.597565,0.105072,-0.773926,-74.377441,144.838257,1.000000,-0.064941,-0.163574,-0.976562,-0.610352,-0.427246,0.072662,-0.759064,-0.035370,-0.645935,-80.337524,-13.859253,0.985840,0.133789,0.031738,-0.732422,-0.854492,-0.427246,-0.212616,0.631927,0.294434,0.684631,-82.106323,143.882446
550,0.971191,0.054688,0.262695,0.000000,-0.915527,-0.122070,-0.181274,-0.597565,0.105072,-0.773926,-74.377441,144.838257,1.000000,-0.064941,-0.163574,-0.976562,-0.610352,-0.427246,0.072662,-0.759064,-0.035370,-0.645935,-80.337524,-13.859253,0.985840,0.133789,0.031738,-0.732422,-0.854492,-0.427246,-0.212616,0.631927,0.294434,0.684631,-82.106323,143.882446
560,0.971191,0.054688,0.262695,0.000000,-0.915527,-0.122070,-0.181274,-0.597565,0.105072,-0.773926,-74.377441,144.838257,1.000000,-0.064941,-0.163574,-0.976562,-0.610352,-0.427246,0.072662,-0.759064,-0.035370,-0.645935,-80.337524,-13.859253,0.985840,0.133789,0.031738,-0.732422,-0.854492,-0.427246,-0.212616,0.631927,0.294434,0.684631,-82.106323,143.882446
570,0.972656,0.055664,0.258301,-0.122070,-1.464844,0.000000,-0.181213,-0.597870,0.105103,-0.773712,-74.415894,144.799805,1.007812,-0.063965,-0.154297,-0.305176,0.000000,-0.183105,0.072601,-0.759094,-0.035431,-0.645935,-80.332031,-13.798828,0.997070,0.135742,0.029297,-0.305176,-0.854492,-0.183105,-0.212250,0.632111,0.294403,0.684570,-82.095337,143.640747
580,0.972656,0.055664,0.258301,-0.122070,-1.464844,0.000000,-0.181213,-0.597870,0.105103,-0.773712,-74.415894,144.799805,1.007812,-0.063965,-0.154297,-0.305176,0.000000,-0.183105,0.072601,-0.759094,-0.035431,-0.645935,-80.332031,-13.798828,0.997070,0.135742,0.029297,-0.305176,-0.854492,-0.183105,-0.212250,0.632111,0.294403,0.684570,-82.095337,143.640747
590,0.972656,0.055664,0.258301,-0.122070,-1.464844,0.000000,-0.181213,-0.597870,0.105103,-0.773712,-74.415894,144.799805,1.007812,-0.063965,-0.154297,-0.305176,0.000000,-0.183105,0.072601,-0.759094,-0.035431,-0.645935,-80.332031,-13.798828,0.997070,0.135742,0.029297,-0.305176,-0.854492,-0.183105,-0.212250,0.632111,0.294403,0.684570,-82.095337,143.640747
600,0.972656,0.055664,0.262695,-0.122070,-2.197266,0.122070,-0.181122,-0.598328,0.105194,-0.773346,-74.481812,144.761353,1.006836,-0.061523,-0.162598,-0.427246,-0.854492,-0.061035,0.072388,-0.759155,-0.035339,-0.645844,-80.332031,-13.732910,0.994629,0.138672,0.028809,0.122070,-0.488281,-0.244141,-0.212158,0.632172,0.294495,0.684509,-82.089844,143.508911
610,0.972656,0.055664,0.262695,-0.122070,-2.197266,0.122070,-0.181122,-0.598328,0.105194,-0.773346,-74.481812,144.761353,1.006836,-0.061523,-0.162598,-0.427246,-0.854492,-0.061035,0.072388,-0.759155,-0.035339,-0.645844,-80.332031,-13.732910,0.994629,0.138672,0.028809,0.122070,-0.488281,-0.244141,-0.212158,0.632172,0.294495,0.684509,-82.089844,143.508911
620,0.972656,0.055664,0.262695,-0.122070,-2.197266,0.122070,-0.181122,-0.598328,0.105194,-0.773346,-74.481812,144.761353,1.006836,-0.061523,-0.162598,-0.427246,-0.854492,-0.061035,0.072388,-0.759155,-0.035339,-0.645844,-80.332031,-13.732910,0.994629,0.138672,0.028809,0.122070,-0.488281,-0.244141,-0.212158,0.632172,0.294495,0.684509,-82.089844,143.508911
630,0.975586,0.056641,0.261230,0.061035,-2.868652,0.183105,-0.181000,-0.598816,0.105316,-0.773010,-74.547729,144.722900,1.012207,-0.063965,-0.164062,0.183105,-0.549316,-0.183105,0.072021,-0.759338,-0.035126,-0.645691,-80.304565,-13.634033,0.993164,0.135742,0.036133,-0.427246,-0.793457,0.000000,-0.211761,0.632416,0.294220,0.684540,-82.084351,143.344116
640,0.975586,0.056641,0.261230,0.061035,-2.868652,0.183105,-0.181000,-0.598816,0.105316,-0.773010,-74.547729,144.722900,1.012207,-0.063965,-0.164062,0.183105,-0.549316,-0.183105,0.072021,-0.759338,-0.035126,-0.645691,-80.304565,-13.634033,0.993164,0.135742,0.036133,-0.427246,-0.793457,0.000000,-0.211761,0.632416,0.294220,0.684540,-82.084351,143.344116
650,0.975586,0.056641,0.261230,0.061035,-2.868652,0.183105,-0.181000,-0.598816,0.105316,-0.773010,-74.547729,144.722900,1.012207,-0.063965,-0.164062,0.183105,-0.549316,-0.183105,0.072021,-0.759338,-0.035126,-0.645691,-80.304565,-13.634033,0.993164,0.135742,0.036133,-0.427246,-0.793457,0.000000,-0.211761,0.632416,0.294220,0.684540,-82.084351,143.344116
660,0.975586,0.056641,0.261230,0.061035,-2.868652,0.183105,-0.181000,-0.598816,0.105316,-0.773010,-74.547729,144.722900,1.012207,-0.063965,-0.164062,0.183105,-0.549316,-0.183105,0.072021,-0.759338,-0.035126,-0.645691,-80.304565,-13.634033,0.993164,0.135742,0.036133,-0.427246,-0.793457,0.000000,-0.211761,0.632416,0.294220,0.684540,-82.084351,143.344116
670,0.975586,0.056641,0.261230,0.061035,-2.868652,0.183105,-0.180847,-0.599396,0.105408,-0.772552,-74.646606,144.667969,1.010254,-0.069824,-0.148926,0.244141,-0.183105,-0.061035,0.072266,-0.759338,-0.035370,-0.645660,-80.299072,-13.595581,0.989258,0.134766,0.033691,0.366211,-1.220703,0.366211,-0.211365,0.632721,0.293915,0.684509,-82.095337,143.118896
680,0.975586,0.056641,0.261230,0.061035,-2.868652,0.183105,-0.180847,-0.599396,0.105408,-0.772552,-74.646606,144.667969,1.010254,-0.069824,-0.148926,0.244141,-0.183105,-0.061035,0.072266,-0.759338,-0.035370,-0.645660,-80.299072,-13.595581,0.989258,0.134766,0.033691,0.366211,-1.220703,0.366211,-0.211365,0.632721,0.293915,0.684509,-82.095337,143.118896
690,0.975586,0.056641,0.261230,0.061035,-2.868652,0.183105,-0.180847,-0.599396,0.105408,-0.772552,-74.646606,144.667969,1.010254,-0.069824,-0.148926,0.244141,-0.183105,-0.061035,0.072266,-0.759338,-0.035370,-0.645660,-80.299072,-13.595581,0.989258,0.134766,0.033691,0.366211,-1.220703,0.366211,-0.211365,0.632721,0.293915,0.684509,-82.095337,143.118896
700,0.978027,0.058105,0.259277,0.366211,-3.356934,0.183105,-0.180542,-0.600220,0.105438,-0.771973,-74.745483,144.613037,1.005859,-0.068359,-0.157227,0.610352,0.122070,0.000000,0.072693,-0.759277,-0.035767,-0.645691,-80.310059,-13.584595,0.992676,0.131836,0.026855,0.488281,-1.342773,0.061035,-0.211151,0.633026,0.293793,0.684326,-82.106323,142.849731
710,0.978027,0.058105,0.259277,0.366211,-3.356934,0.183105,-0.180542,-0.600220,0.105438,-0.771973,-74.745483,144.613037,1.005859,-0.068359,-0.157227,0.610352,0.122070,0.000000,0.072693,-0.759277,-0.035767,-0.645691,-80.310059,-13.584595,0.992676,0.131836,0.026855,0.488281,-1.342773,0.061035,-0.211151,0.633026,0.293793,0.684326,-82.106323,142.849731
720,0.978027,0.058105,0.259277,0.366211,-3.356934,0.183105,-0.180542,-0.600220,0.105438,-0.771973,-74.745483,144.613037,1.005859,-0.068359,-0.157227,0.610352,0.122070,0.000000,0.072693,-0.759277,-0.035767,-0.645691,-80.310059,-13.584595,0.992676,0.131836,0.026855,0.488281,-1.342773,0.061035,-0.211151,0.633026,0.293793,0.684326,-82.106323,142.849731
730,0.979980,0.059082,0.257812,0.732422,-3.295898,0.061035,-0.180267,-0.600952,0.105408,-0.771484,-74.844360,144.547119,1.005859,-0.060059,-0.171387,-0.183105,0.000000,0.000000,0.072510,-0.759308,-0.035583,-0.645660,-80.304565,-13.590088,0.994141,0.137695,0.018555,0.488281,-1.098633,0.122070,-0.211304,0.633179,0.294128,0.684021,-82.117310,142.569580
740,0.979980,0.059082,0.257812,0.732422,-3.295898,0.061035,-0.180267,-0.600952,0.105408,-0.771484,-74.844360,144.547119,1.005859,-0.060059,-0.171387,-0.183105,0.000000,0.000000,0.072510,-0.759308,-0.035583,-0.645660,-80.304565,-13.590088,0.994141,0.137695,0.018555,0.488281,-1.098633,0.122070,-0.211304,0.633179,0.294128,0.684021,-82.117310,142.569580
750,0.979980,0.059082,0.257812,0.732422,-3.295898,0.061035,-0.180267,-0.600952,0.105408,-0.771484,-74.844360,144.547119,1.005859,-0.060059,-0.171387,-0.183105,0.000000,0.000000,0.072510,-0.759308,-0.035583,-0.645660,-80.304565,-13.590088,0.994141,0.137695,0.018555,0.488281,-1.098633,0.122070,-0.211304,0.633179,0.294128,0.684021,-82.117310,142.569580
760,0.981445,0.060547,0.256348,0.915527,-2.563477,0.000000,-0.179901,-0.601746,0.105255,-0.770966,-74.954224,144.464722,0.999023,-0.061523,-0.173828,-0.183105,-0.122070,0.000000,0.071991,-0.759399,-0.035126,-0.645630,-80.299072,-13.584595,0.998535,0.132324,0.019531,0.000000,-0.671387,-0.183105,-0.211487,0.633240,0.294434,0.683746,-82.122803,142.377319
770,0.981445,0.060547,0.256348,0.915527,-2.563477,0.000000,-0.179901,-0.601746,0.105255,-0.770966,-74.954224,144.464722,0.999023,-0.061523,-0.173828,-0.183105,-0.122070,0.000000,0.071991,-0.759399,-0.035126,-0.645630,-80.299072,-13.584595,0.998535,0.132324,0.019531,0.000000,-0.671387,-0.183105,-0.211487,0.633240,0.294434,0.683746,-82.122803,142.377319
780,0.981445,0.060547,0.256348,0.915527,-2.563477,0.000000,-0.179901,-0.601746,0.105255,-0.770966,-74.954224,144.464722,0.999023,-0.061523,-0.173828,-0.183105,-0.122070,0.000000,0.071991,-0.759399,-0.035126,-0.645630,-80.299072,-13.584595,0.998535,0.132324,0.019531,0.000000,-0.671387,-0.183105,-0.211487,0.633240,0.294434,0.683746,-82.122803,142.377319
790,0.981445,0.060547,0.256348,0.915527,-2.563477,0.000000,-0.179596,-0.602325,0.105042,-0.770599,-75.031128,144.398804,1.008301,-0.066406,-0.168457,-0.671387,-0.366211,-0.183105,0.071594,-0.759613,-0.034821,-0.645447,-80.271606,-13.529663,0.992676,0.136230,0.022461,-0.427246,-0.366211,-0.305176,-0.211548,0.633270,0.294647,0.683624,-82.117310,142.250977
800,0.981445,0.060547,0.256348,0.915527,-2.563477,0.000000,-0.179596,-0.602325,0.105042,-0.770599,-75.031128,144.398804,1.008301,-0.066406,-0.168457,-0.671387,-0.366211,-0.183105,0.071594,-0.759613,-0.034821,-0.645447,-80.271606,-13.529663,0.992676,0.136230,0.022461,-0.427246,-0.366211,-0.305176,-0.211548,0.633270,0.294647,0.683624,-82.117310,142.250977
810,0.981445,0.060547,0.256348,0.915527,-2.563477,0.000000,-0.179596,-0.602325,0.105042,-0.770599,-75.031128,144.398804,1.008301,-0.066406,-0.168457,-0.671387,-0.366211,-0.183105,0.071594,-0.759613,-0.034821,-0.645447,-80.271606,-13.529663,0.992676,0.136230,0.022461,-0.427246,-0.366211,-0.305176,-0.211548,0.633270,0.294647,0.683624,-82.117310,142.250977
820,0.981445,0.060547,0.256348,0.915527,-2.563477,0.000000,-0.179596,-0.602325,0.105042,-0.770599,-75.031128,144.398804,1.008301,-0.066406,-0.168457,-0.671387,-0.366211,-0.183105,0.071594,-0.759613,-0.034821,-0.645447,-80.271606,-13.529663,0.992676,0.136230,0.022461,-0.427246,-0.366211,-0.305176,-0.211548,0.633270,0.294647,0.683624,-82.117310,142.250977
830,0.980469,0.061523,0.255859,0.915527,-1.708984,-0.122070,-0.179321,-0.602753,0.104767,-0.770386,-75.091553,144.332886,1.006348,-0.065918,-0.166016,-0.244141,0.000000,-0.183105,0.071564,-0.759674,-0.034821,-0.645386,-80.260620,-13.502197,0.997070,0.132812,0.019531,0.122070,-0.061035,-0.244141,-0.211578,0.633270,0.294769,0.683563,-82.117310,142.174072
840,0.980469,0.061523,0.255859,0.915527,-1.708984,-0.122070,-0.179321,-0.602753,0.104767,-0.770386,-75.091553,144.332886,1.006348,-0.065918,-0.166016,-0.244141,0.000000,-0.183105,0.071564,-0.759674,-0.034821,-0.645386,-80.260620,-13.502197,0.997070,0.132812,0.019531,0.122070,-0.061035,-0.244141,-0.211578,0.633270,0.294769,0.683563,-82.117310,142.174072
850,0.980469,0.061523,0.255859,0.915527,-1.708984,-0.122070,-0.179321,-0.602753,0.104767,-0.770386,-75.091553,144.332886,1.006348,-0.065918,-0.166016,-0.244141,0.000000,-0.183105,0.071564,-0.759674,-0.034821,-0.645386,-80.260620,-13.502197,0.997070,0.132812,0.019531,0.122070,-0.061035,-0.244141,-0.211578,0.633270,0.294769,0.683563,-82.117310,142.174072
860,0.978516,0.062012,0.253418,0.854492,-0.915527,-0.183105,-0.179047,-0.603119,0.104431,-0.770233,-75.119019,144.283447,1.006836,-0.061035,-0.169434,0.244141,-0.427246,-0.183105,0.071289,-0.759796,-0.034637,-0.645264,-80.244141,-13.447266,0.993652,0.136230,0.027344,-0.122070,0.122070,-0.305176,-0.211548,0.633209,0.294891,0.683563,-82.100830,142.168579
870,0.978516,0.062012,0.253418,0.854492,-0.915527,-0.183105,-0.179047,-0.603119,0.104431,-0.770233,-75.119019,144.283447,1.006836,-0.061035,-0.169434,0.244141,-0.427246,-0.183105,0.071289,-0.759796,-0.034637,-0.645264,-80.244141,-13.447266,0.993652,0.136230,0.027344,-0.122070,0.122070,-0.305176,-0.211548,0.633209,0.294891,0.683563,-82.100830,142.168579
880,0.978516,0.062012,0.253418,0.854492,-0.915527,-0.183105,-0.179047,-0.603119,0.104431,-0.770233,-75.119019,144.283447,1.006836,-0.061035,-0.169434,0.244141,-0.427246,-0.183105,0.071289,-0.759796,-0.034637,-0.645264,-80.244141,-13.447266,0.993652,0.136230,0.027344,-0.122070,0.122070,-0.305176,-0.211548,0.633209,0.294891,0.683563,-82.100830,142.168579
890,0.977051,0.062500,0.254395,0.671387,-0.488281,-0.183105,-0.178802,-0.603302,0.104095,-0.770172,-75.140991,144.239502,1.008301,-0.062500,-0.163086,0.122070,0.000000,0.061035,0.071136,-0.759857,-0.034485,-0.645233,-80.238647,-13.425293,0.993652,0.137207,0.024902,-0.671387,0.000000,-0.183105,-0.211334,0.633270,0.294800,0.683624,-82.095337,142.130127
900,0.977051,0.062500,0.254395,0.671387,-0.488281,-0.183105,-0.178802,-0.603302,0.104095,-0.770172,-75.140991,144.239502,1.008301,-0.062500,-0.163086,0.122070,0.000000,0.061035,0.071136,-0.759857,-0.034485,-0.645233,-80.238647,-13.425293,0.993652,0.137207,0.024902,-0.671387,0.000000,-0.183105,-0.211334,0.633270,0.294800,0.683624,-82.095337,142.130127
910,0.977051,0.062500,0.254395,0.671387,-0.488281,-0.183105,-0.178802,-0.603302,0.104095,-0.770172,-75.140991,144.239502,1.008301,-0.062500,-0.163086,0.122070,0.000000,0.061035,0.071136,-0.759857,-0.034485,-0.645233,-80.238647,-13.425293,0.993652,0.137207,0.024902,-0.671387,0.000000,-0.183105,-0.211334,0.633270,0.294800,0.683624,-82.095337,142.130127
920,0.976074,0.062012,0.252441,0.549316,-0.122070,-0.122070,-0.178589,-0.603455,0.103760,-0.770142,-75.151978,144.201050,1.010742,-0.059082,-0.169922,-0.610352,0.061035,-0.183105,0.070770,-0.759857,-0.034180,-0.645294,-80.238647,-13.441772,1.000488,0.138672,0.021484,-0.244141,0.366211,-0.183105,-0.211212,0.633270,0.294708,0.683716,-82.084351,142.135620
930,0.976074,0.062012,0.252441,0.549316,-0.122070,-0.122070,-0.178589,-0.603455,0.103760,-0.770142,-75.151978,144.201050,1.010742,-0.059082,-0.169922,-0.610352,0.061035,-0.183105,0.070770,-0.759857,-0.034180,-0.645294,-80.238647,-13.441772,1.000488,0.138672,0.021484,-0.244141,0.366211,-0.183105,-0.211212,0.633270,0.294708,0.683716,-82.084351,142.135620
940,0.976074,0.062012,0.252441,0.549316,-0.122070,-0.122070,-0.178589,-0.603455,0.103760,-0.770142,-75.151978,144.201050,1.010742,-0.059082,-0.169922,-0.610352,0.061035,-0.183105,0.070770,-0.759857,-0.034180,-0.645294,-80.238647,-13.441772,1.000488,0.138672,0.021484,-0.244141,0.366211,-0.183105,-0.211212,0.633270,0.294708,0.683716,-82.084351,142.135620
950,0.976074,0.062012,0.252441,0.549316,-0.122070,-0.122070,-0.178436,-0.603546,0.103516,-0.770142,-75.151978,144.184570,1.004395,-0.062012,-0.166992,-0.305176,0.000000,-0.122070,0.070312,-0.759949,-0.033813,-0.645264,-80.233154,-13.408813,0.985352,0.137695,0.023438,-0.854492,0.244141,-0.305176,-0.211273,0.633118,0.294861,0.683746,-82.073364,142.212524
960,0.976074,0.062012,0.252441,0.549316,-0.122070,-0.122070,-0.178436,-0.603546,0.103516,-0.770142,-75.151978,144.184570,1.004395,-0.062012,-0.166992,-0.305176,0.000000,-0.122070,0.070312,-0.759949,-0.033813,-0.645264,-80.233154,-13.408813,0.985352,0.137695,0.023438,-0.854492,0.244141,-0.305176,-0.211273,0.633118,0.294861,0.683746,-82.073364,142.212524
970,0.976074,0.062012,0.252441,0.549316,-0.122070,-0.122070,-0.178436,-0.603546,0.103516,-0.770142,-75.151978,144.184570,1.004395,-0.062012,-0.166992,-0.305176,0.000000,-0.122070,0.070312,-0.759949,-0.033813,-0.645264,-80.233154,-13.408813,0.985352,0.137695,0.023438,-0.854492,0.244141,-0.305176,-0.211273,0.633118,0.294861,0.683746,-82.073364,142.212524
980,0.976074,0.062012,0.252441,0.549316,-0.122070,-0.122070,-0.178436,-0.603546,0.103516,-0.770142,-75.151978,144.184570,1.004395,-0.062012,-0.166992,-0.305176,0.000000,-0.122070,0.070312,-0.759949,-0.033813,-0.645264,-80.233154,-13.408813,0.985352,0.137695,0.023438,-0.854492,0.244141,-0.305176,-0.211273,0.633118,0.294861,0.683746,-82.073364,142.212524
990,0.975098,0.062012,0.256348,0.427246,0.366211,0.000000,-0.178284,-0.603485,0.103241,-0.770264,-75.135498,144.190063,1.001953,-0.061035,-0.162598,-0.610352,-0.183105,0.000000,0.070129,-0.760040,-0.033691,-0.645142,-80.216675,-13.370361,0.987793,0.125000,0.033203,-1.892090,0.000000,-0.061035,-0.210785,0.633240,0.294434,0.683990,-82.062378,142.218018
1000,0.975098,0.062012,0.256348,0.427246,0.366211,0.000000,-0.178284,-0.603485,0.103241,-0.770264,-75.135498,144.190063,1.001953,-0.061035,-0.162598,-0.610352,-0.183105,0.000000,0.070129,-0.760040,-0.033691,-0.645142,-80.216675,-13.370361,0.987793,0.125000,0.033203,-1.892090,0.000000,-0.061035,-0.210785,0.633240,0.294434,0.683990,-82.062378,142.218018
1010,0.975098,0.062012,0.256348,0.427246,0.366211,0.000000,-0.178284,-0.603485,0.103241,-0.770264,-75.135498,144.190063,1.001953,-0.061035,-0.162598,-0.610352,-0.183105,0.000000,0.070129,-0.760040,-0.033691,-0.645142,-80.216675,-13.370361,0.987793,0.125000,0.033203,-1.892090,0.000000,-0.061035,-0.210785,0.633240,0.294434,0.683990,-82.062378,142.218018
1020,0.976562,0.062012,0.256348,0.244141,0.793457,0.061035,-0.178192,-0.603333,0.103027,-0.770447,-75.113525,144.206543,1.006348,-0.072266,-0.151855,-0.305176,-0.427246,0.244141,0.070251,-0.760071,-0.033783,-0.645111,-80.211182,-13.359375,0.989746,0.145508,0.033203,-0.549316,-0.061035,0.061035,-0.210052,0.633484,0.293640,0.684296,-82.062378,142.212524
1030,0.976562,0.062012,0.256348,0.244141,0.793457,0.061035,-0.178192,-0.603333,0.103027,-0.770447,-75.113525,144.206543,1.006348,-0.072266,-0.151855,-0.305176,-0.427246,0.244141,0.070251,-0.760071,-0.033783,-0.645111,-80.211182,-13.359375,0.989746,0.145508,0.033203,-0.549316,-0.061035,0.061035,-0.210052,0.633484,0.293640,0.684296,-82.062378,142.212524
1040,0.976562,0.062012,0.256348,0.244141,0.793457,0.061035,-0.178192,-0.603333,0.103027,-0.770447,-75.113525,144.206543,1.006348,-0.072266,-0.151855,-0.305176,-0.427246,0.244141,0.070251,-0.760071,-0.033783,-0.645111,-80.211182,-13.359375,0.989746,0.145508,0.033203,-0.549316,-0.061035,0.061035,-0.210052,0.633484,0.293640,0.684296,-82.062378,142.212524
1050,0.976074,0.061035,0.257812,0.000000,0.793457,0.183105,-0.178101,-0.603180,0.102875,-0.770599,-75.086060,144.244995,1.013672,-0.060547,-0.139648,-0.305176,-0.549316,0.366211,0.070496,-0.760071,-0.033936,-0.645081,-80.205688,-13.386841,0.991699,0.138184,0.035156,0.427246,-0.793457,1.403809,-0.209503,0.633728,0.293060,0.684509,-82.062378,142.152100
1060,0.976074,0.061035,0.257812,0.000000,0.793457,0.183105,-0.178101,-0.603180,0.102875,-0.770599,-75.086060,144.244995,1.013672,-0.060547,-0.139648,-0.305176,-0.549316,0.366211,0.070496,-0.760071,-0.033936,-0.645081,-80.205688,-13.386841,0.991699,0.138184,0.035156,0.427246,-0.793457,1.403809,-0.209503,0.633728,0.293060,0.684509,-82.062378,142.152100
1070,0.976074,0.061035,0.257812,0.000000,0.793457,0.183105,-0.178101,-0.603180,0.102875,-0.770599,-75.086060,144.244995,1.013672,-0.060547,-0.139648,-0.305176,-0.549316,0.366211,0.070496,-0.760071,-0.033936,-0.645081,-80.205688,-13.386841,0.991699,0.138184,0.035156,0.427246,-0.793457,1.403809,-0.209503,0.633728,0.293060,0.684509,-82.062378,142.152100
1080,0.976562,0.059082,0.259277,-0.427246,0.488281,0.366211,-0.178040,-0.602966,0.102844,-0.770782,-75.058594,144.288940,1.006836,-0.058105,-0.156738,1.403809,-1.342773,0.122070,0.070679,-0.760193,-0.034058,-0.644928,-80.189209,-13.359375,0.995117,0.138672,0.028809,2.319336,-0.305176,1.037598,-0.209717,0.633820,0.293060,0.684387,-82.089844,142.113647
1090,0.976562,0.059082,0.259277,-0.427246,0.488281,0.366211,-0.178040,-0.602966,0.102844,-0.770782,-75.058594,144.288940,1.006836,-0.058105,-0.156738,1.403809,-1.342773,0.122070,0.070679,-0.760193,-0.034058,-0.644928,-80.189209,-13.359375,0.995117,0.138672,0.028809,2.319336,-0.305176,1.037598,-0.209717,0.633820,0.293060,0.684387,-82.089844,142.113647
1100,0.976562,0.059082,0.259277,-0.427246,0.488281,0.366211,-0.178040,-0.602966,0.102844,-0.770782,-75.058594,144.288940,1.006836,-0.058105,-0.156738,1.403809,-1.342773,0.122070,0.070679,-0.760193,-0.034058,-0.644928,-80.189209,-13.359375,0.995117,0.138672,0.028809,2.319336,-0.305176,1.037598,-0.209717,0.633820,0.293060,0.684387,-82.089844,142.113647
1110,0.976562,0.059082,0.259277,-0.427246,0.488281,0.366211,-0.178040,-0.602814,0.102905,-0.770874,-75.042114,144.338379,1.016113,-0.073730,-0.170410,3.112793,-1.464844,0.305176,0.071350,-0.760406,-0.034576,-0.644562,-80.145264,-13.298950,0.992676,0.131348,0.031250,2.380371,-0.610352,1.220703,-0.209900,0.633972,0.292938,0.684204,-82.122803,142.058716
1120,0.976562,0.059082,0.259277,-0.427246,0.488281,0.366211,-0.178040,-0.602814,0.102905,-0.770874,-75.042114,144.338379,1.016113,-0.073730,-0.170410,3.112793,-1.464844,0.305176,0.071350,-0.760406,-0.034576,-0.644562,-80.145264,-13.298950,0.992676,0.131348,0.031250,2.380371,-0.610352,1.220703,-0.209900,0.633972,0.292938,0.684204,-82.122803,142.058716
1130,0.976562,0.059082,0.259277,-0.427246,0.488281,0.366211,-0.178040,-0.602814,0.102905,-0.770874,-75.042114,144.338379,1.016113,-0.073730,-0.170410,3.112793,-1.464844,0.305176,0.071350,-0.760406,-0.034576,-0.644562,-80.145264,-13.298950,0.992676,0.131348,0.031250,2.380371,-0.610352,1.220703,-0.209900,0.633972,0.292938,0.684204,-82.122803,142.058716
1140,0.976562,0.059082,0.259277,-0.427246,0.488281,0.366211,-0.178040,-0.602814,0.102905,-0.770874,-75.042114,144.338379,1.016113,-0.073730,-0.170410,3.112793,-1.464844,0.305176,0.071350,-0.760406,-0.034576,-0.644562,-80.145264,-13.298950,0.992676,0.131348,0.031250,2.380371,-0.610352,1.220703,-0.209900,0.633972,0.292938,0.684204,-82.122803,142.058716
1150,0.978516,0.058594,0.258301,-0.854492,0.000000,0.549316,-0.178070,-0.602722,0.103149,-0.770935,-75.036621,144.409790,1.014160,-0.073242,-0.152832,4.760742,-0.671387,0.732422,0.072815,-0.760406,-0.035675,-0.644318,-80.112305,-13.304443,0.996582,0.138184,0.027832,2.441406,-0.549316,1.281738,-0.210266,0.634155,0.292938,0.683929,-82.166748,141.970825
1160,0.978516,0.058594,0.258301,-0.854492,0.000000,0.549316,-0.178070,-0.602722,0.103149,-0.770935,-75.036621,144.409790,1.014160,-0.073242,-0.152832,4.760742,-0.671387,0.732422,0.072815,-0.760406,-0.035675,-0.644318,-80.112305,-13.304443,0.996582,0.138184,0.027832,2.441406,-0.549316,1.281738,-0.210266,0.634155,0.292938,0.683929,-82.166748,141.970825
1170,0.978516,0.058594,0.258301,-0.854492,0.000000,0.549316,-0.178070,-0.602722,0.103149,-0.770935,-75.036621,144.409790,1.014160,-0.073242,-0.152832,4.760742,-0.671387,0.732422,0.072815,-0.760406,-0.035675,-0.644318,-80.112305,-13.304443,0.996582,0.138184,0.027832,2.441406,-0.549316,1.281738,-0.210266,0.634155,0.292938,0.683929,-82.166748,141.970825
1180,0.979492,0.059570,0.260742,-1.098633,-0.427246,0.793457,-0.178040,-0.602692,0.103424,-0.770905,-75.042114,144.481201,1.008789,-0.045410,-0.180664,3.479004,-0.061035,0.915527,0.073273,-0.760498,-0.035706,-0.644165,-80.084839,-13.441772,0.989746,0.142578,0.015137,1.586914,-0.488281,1.708984,-0.211243,0.634125,0.293518,0.683441,-82.210693,141.899414
1190,0.979492,0.059570,0.260742,-1.098633,-0.427246,0.793457,-0.178040,-0.602692,0.103424,-0.770905,-75.042114,144.481201,1.008789,-0.045410,-0.180664,3.479004,-0.061035,0.915527,0.073273,-0.760498,-0.035706,-0.644165,-80.084839,-13.441772,0.989746,0.142578,0.015137,1.586914,-0.488281,1.708984,-0.211243,0.634125,0.293518,0.683441,-82.210693,141.899414
1200,0.979492,0.059570,0.260742,-1.098633,-0.427246,0.793457,-0.178040,-0.602692,0.103424,-0.770905,-75.042114,144.481201,1.008789,-0.045410,-0.180664,3.479004,-0.061035,0.915527,0.073273,-0.760498,-0.035706,-0.644165,-80.084839,-13.441772,0.989746,0.142578,0.015137,1.586914,-0.488281,1.708984,-0.211243,0.634125,0.293518,0.683441,-82.210693,141.899414
1210,0.979004,0.060059,0.262695,-0.915527,-0.366211,1.159668,-0.177979,-0.602692,0.103699,-0.770905,-75.053101,144.585571,1.001465,-0.035156,-0.194336,0.915527,0.488281,0.854492,0.072540,-0.760620,-0.034698,-0.644165,-80.068359,-13.595581,1.000000,0.138184,0.003418,0.183105,0.122070,1.342773,-0.212311,0.633942,0.294220,0.682953,-82.254639,141.915894
1220,0.979004,0.060059,0.262695,-0.915527,-0.366211,1.159668,-0.177979,-0.602692,0.103699,-0.770905,-75.053101,144.585571,1.001465,-0.035156,-0.194336,0.915527,0.488281,0.854492,0.072540,-0.760620,-0.034698,-0.644165,-80.068359,-13.595581,1.000000,0.138184,0.003418,0.183105,0.122070,1.342773,-0.212311,0.633942,0.294220,0.682953,-82.254639,141.915894
1230,0.979004,0.060059,0.262695,-0.915527,-0.366211,1.159668,-0.177979,-0.602692,0.103699,-0.770905,-75.053101,144.585571,1.001465,-0.035156,-0.194336,0.915527,0.488281,0.854492,0.072540,-0.760620,-0.034698,-0.644165,-80.068359,-13.595581,1.000000,0.138184,0.003418,0.183105,0.122070,1.342773,-0.212311,0.633942,0.294220,0.682953,-82.254639,141.915894
1240,0.979004,0.060059,0.262695,-0.915527,-0.366211,1.159668,-0.177795,-0.602631,0.104004,-0.770935,-75.064087,144.706421,1.001465,-0.055664,-0.199219,-0.915527,0.305176,0.915527,0.071411,-0.760864,-0.033295,-0.644073,-80.035400,-13.782349,1.000000,0.130371,0.010254,-1.159668,0.732422,1.220703,-0.213379,0.633728,0.294678,0.682617,-82.298584,142.091675
1250,0.979004,0.060059,0.262695,-0.915527,-0.366211,1.159668,-0.177795,-0.602631,0.104004,-0.770935,-75.064087,144.706421,1.001465,-0.055664,-0.199219,-0.915527,0.305176,0.915527,0.071411,-0.760864,-0.033295,-0.644073,-80.035400,-13.782349,1.000000,0.130371,0.010254,-1.159668,0.732422,1.220703,-0.213379,0.633728,0.294678,0.682617,-82.298584,142.091675
1260,0.979004,0.060059,0.262695,-0.915527,-0.366211,1.159668,-0.177795,-0.602631,0.104004,-0.770935,-75.064087,144.706421,1.001465,-0.055664,-0.199219,-0.915527,0.305176,0.915527,0.071411,-0.760864,-0.033295,-0.644073,-80.035400,-13.782349,1.000000,0.130371,0.010254,-1.159668,0.732422,1.220703,-0.213379,0.633728,0.294678,0.682617,-82.298584,142.091675
1270,0.979492,0.059570,0.263184,-0.366211,-0.061035,1.342773,-0.177551,-0.602570,0.104187,-0.771027,-75.064087,144.854736,1.006348,-0.082520,-0.176270,-1.953125,0.488281,0.793457,0.071198,-0.760956,-0.032806,-0.644012,-80.013428,-13.914185,0.997559,0.125488,0.025391,-1.770020,0.976562,0.793457,-0.213409,0.633759,0.294128,0.682831,-82.331543,142.333374
1280,0.979492,0.059570,0.263184,-0.366211,-0.061035,1.342773,-0.177551,-0.602570,0.104187,-0.771027,-75.064087,144.854736,1.006348,-0.082520,-0.176270,-1.953125,0.488281,0.793457,0.071198,-0.760956,-0.032806,-0.644012,-80.013428,-13.914185,0.997559,0.125488,0.025391,-1.770020,0.976562,0.793457,-0.213409,0.633759,0.294128,0.682831,-82.331543,142.333374
1290,0.979492,0.059570,0.263184,-0.366211,-0.061035,1.342773,-0.177551,-0.602570,0.104187,-0.771027,-75.064087,144.854736,1.006348,-0.082520,-0.176270,-1.953125,0.488281,0.793457,0.071198,-0.760956,-0.032806,-0.644012,-80.013428,-13.914185,0.997559,0.125488,0.025391,-1.770020,0.976562,0.793457,-0.213409,0.633759,0.294128,0.682831,-82.331543,142.333374
1300,0.979492,0.059570,0.263184,-0.366211,-0.061035,1.342773,-0.177551,-0.602570,0.104187,-0.771027,-75.064087,144.854736,1.006348,-0.082520,-0.176270,-1.953125,0.488281,0.793457,0.071198,-0.760956,-0.032806,-0.644012,-80.013428,-13.914185,0.997559,0.125488,0.025391,-1.770020,0.976562,0.793457,-0.213409,0.633759,0.294128,0.682831,-82.331543,142.333374
1310,0.978027,0.057129,0.259277,0.061035,0.122070,1.281738,-0.177185,-0.602478,0.104340,-0.771149,-75.069580,145.030518,1.004395,-0.089844,-0.149414,-0.671387,0.976562,0.915527,0.072052,-0.760773,-0.033203,-0.644104,-80.018921,-14.100952,0.996582,0.122559,0.030762,-0.244141,1.159668,0.488281,-0.213135,0.633789,0.293274,0.683258,-82.359009,142.668457
1320,0.978027,0.057129,0.259277,0.061035,0.122070,1.281738,-0.177185,-0.602478,0.104340,-0.771149,-75.069580,145.030518,1.004395,-0.089844,-0.149414,-0.671387,0.976562,0.915527,0.072052,-0.760773,-0.033203,-0.644104,-80.018921,-14.100952,0.996582,0.122559,0.030762,-0.244141,1.159668,0.488281,-0.213135,0.633789,0.293274,0.683258,-82.359009,142.668457
1330,0.978027,0.057129,0.259277,0.061035,0.122070,1.281738,-0.177185,-0.602478,0.104340,-0.771149,-75.069580,145.030518,1.004395,-0.089844,-0.149414,-0.671387,0.976562,0.915527,0.072052,-0.760773,-0.033203,-0.644104,-80.018921,-14.100952,0.996582,0.122559,0.030762,-0.244141,1.159668,0.488281,-0.213135,0.633789,0.293274,0.683258,-82.359009,142.668457
1340,0.976562,0.052246,0.255371,0.244141,0.366211,0.793457,-0.176971,-0.602386,0.104431,-0.771271,-75.064087,145.151367,1.002441,-0.083984,-0.164062,0.122070,0.854492,0.427246,0.072937,-0.760559,-0.033630,-0.644257,-80.035400,-14.309692,0.998535,0.121094,0.032227,-0.122070,0.976562,0.366211,-0.212952,0.633789,0.292725,0.683533,-82.375488,142.904663
1350,0.976562,0.052246,0.255371,0.244141,0.366211,0.793457,-0.176971,-0.602386,0.104431,-0.771271,-75.064087,145.151367,1.002441,-0.083984,-0.164062,0.122070,0.854492,0.427246,0.072937,-0.760559,-0.033630,-0.644257,-80.035400,-14.309692,0.998535,0.121094,0.032227,-0.122070,0.976562,0.366211,-0.212952,0.633789,0.292725,0.683533,-82.375488,142.904663
1360,0.976562,0.052246,0.255371,0.244141,0.366211,0.793457,-0.176971,-0.602386,0.104431,-0.771271,-75.064087,145.151367,1.002441,-0.083984,-0.164062,0.122070,0.854492,0.427246,0.072937,-0.760559,-0.033630,-0.644257,-80.035400,-14.309692,0.998535,0.121094,0.032227,-0.122070,0.976562,0.366211,-0.212952,0.633789,0.292725,0.683533,-82.375488,142.904663
1370,0.977539,0.049316,0.248047,0.000000,0.732422,0.000000,-0.176880,-0.602295,0.104492,-0.771362,-75.053101,145.239258,1.009277,-0.082520,-0.148926,-0.183105,0.793457,0.000000,0.073486,-0.760345,-0.034058,-0.644409,-80.057373,-14.386597,1.000488,0.127441,0.033691,-0.549316,0.671387,-0.061035,-0.212616,0.633820,0.292206,0.683838,-82.375488,143.091431
1380,0.977539,0.049316,0.248047,0.000000,0.732422,0.000000,-0.176880,-0.602295,0.104492,-0.771362,-75.053101,145.239258,1.009277,-0.082520,-0.148926,-0.183105,0.793457,0.000000,0.073486,-0.760345,-0.034058,-0.644409,-80.057373,-14.386597,1.000488,0.127441,0.033691,-0.549316,0.671387,-0.061035,-0.212616,0.633820,0.292206,0.683838,-82.375488,143.091431
1390,0.977539,0.049316,0.248047,0.000000,0.732422,0.000000,-0.176880,-0.602295,0.104492,-0.771362,-75.053101,145.239258,1.009277,-0.082520,-0.148926,-0.183105,0.793457,0.000000,0.073486,-0.760345,-0.034058,-0.644409,-80.057373,-14.386597,1.000488,0.127441,0.033691,-0.549316,0.671387,-0.061035,-0.212616,0.633820,0.292206,0.683838,-82.375488,143.091431
1400,0.977539,0.049316,0.248047,0.000000,0.732422,0.000000,-0.176971,-0.602142,0.104523,-0.771423,-75.042114,145.255737,1.001953,-0.078125,-0.157227,-0.732422,0.183105,0.061035,0.073853,-0.760254,-0.034363,-0.644470,-80.073853,-14.425049,0.994141,0.126953,0.035645,0.061035,0.549316,-0.244141,-0.212128,0.633881,0.291626,0.684174,-82.369995,143.239746
1410,0.977539,0.049316,0.248047,0.000000,0.732422,0.000000,-0.176971,-0.602142,0.104523,-0.771423,-75.042114,145.255737,1.001953,-0.078125,-0.157227,-0.732422,0.183105,0.061035,0.073853,-0.760254,-0.034363,-0.644470,-80.073853,-14.425049,0.994141,0.126953,0.035645,0.061035,0.549316,-0.244141,-0.212128,0.633881,0.291626,0.684174,-82.369995,143.239746
1420,0.977539,0.049316,0.248047,0.000000,0.732422,0.000000,-0.176971,-0.602142,0.104523,-0.771423,-75.042114,145.255737,1.001953,-0.078125,-0.157227,-0.732422,0.183105,0.061035,0.073853,-0.760254,-0.034363,-0.644470,-80.073853,-14.425049,0.994141,0.126953,0.035645,0.061035,0.549316,-0.244141,-0.212128,0.633881,0.291626,0.684174,-82.369995,143.239746
1430,0.977051,0.047852,0.248047,-0.488281,1.281738,-0.732422,-0.177277,-0.601929,0.104553,-0.771545,-75.009155,145.200806,1.018555,-0.074707,-0.155762,0.488281,0.183105,-0.488281,0.074280,-0.760132,-0.034882,-0.644501,-80.084839,-14.370117,0.993164,0.130371,0.031250,0.183105,0.305176,-0.122070,-0.211975,0.633820,0.291473,0.684326,-82.359009,143.322144
1440,0.977051,0.047852,0.248047,-0.488281,1.281738,-0.732422,-0.177277,-0.601929,0.104553,-0.771545,-75.009155,145.200806,1.018555,-0.074707,-0.155762,0.488281,0.183105,-0.488281,0.074280,-0.760132,-0.034882,-0.644501,-80.084839,-14.370117,0.993164,0.130371,0.031250,0.183105,0.305176,-0.122070,-0.211975,0.633820,0.291473,0.684326,-82.359009,143.322144
1450,0.977051,0.047852,0.248047,-0.488281,1.281738,-0.732422,-0.177277,-0.601929,0.104553,-0.771545,-75.009155,145.200806,1.018555,-0.074707,-0.155762,0.488281,0.183105,-0.488281,0.074280,-0.760132,-0.034882,-0.644501,-80.084839,-14.370117,0.993164,0.130371,0.031250,0.183105,0.305176,-0.122070,-0.211975,0.633820,0.291473,0.684326,-82.359009,143.322144
1460,0.977051,0.047852,0.248047,-0.488281,1.281738,-0.732422,-0.177277,-0.601929,0.104553,-0.771545,-75.009155,145.200806,1.018555,-0.074707,-0.155762,0.488281,0.183105,-0.488281,0.074280,-0.760132,-0.034882,-0.644501,-80.084839,-14.370117,0.993164,0.130371,0.031250,0.183105,0.305176,-0.122070,-0.211975,0.633820,0.291473,0.684326,-82.359009,143.322144
1470,0.978516,0.048340,0.245605,-0.793457,1.586914,-1.220703,-0.177795,-0.601624,0.104553,-0.771667,-74.959717,145.096436,1.001953,-0.070312,-0.156738,1.586914,-0.061035,-0.244141,0.074768,-0.760010,-0.035461,-0.644562,-80.101318,-14.320679,0.990234,0.130371,0.035645,1.525879,0.183105,0.000000,-0.211792,0.633820,0.291229,0.684509,-82.359009,143.393555
1480,0.978516,0.048340,0.245605,-0.793457,1.586914,-1.220703,-0.177795,-0.601624,0.104553,-0.771667,-74.959717,145.096436,1.001953,-0.070312,-0.156738,1.586914,-0.061035,-0.244141,0.074768,-0.760010,-0.035461,-0.644562,-80.101318,-14.320679,0.990234,0.130371,0.035645,1.525879,0.183105,0.000000,-0.211792,0.633820,0.291229,0.684509,-82.359009,143.393555
1490,0.978516,0.048340,0.245605,-0.793457,1.586914,-1.220703,-0.177795,-0.601624,0.104553,-0.771667,-74.959717,145.096436,1.001953,-0.070312,-0.156738,1.586914,-0.061035,-0.244141,0.074768,-0.760010,-0.035461,-0.644562,-80.101318,-14.320679,0.990234,0.130371,0.035645,1.525879,0.183105,0.000000,-0.211792,0.633820,0.291229,0.684509,-82.359009,143.393555
1500,0.978027,0.048828,0.249023,-0.671387,1.037598,-1.220703,-0.178223,-0.601410,0.104584,-0.771729,-74.926758,144.986572,1.004395,-0.057617,-0.159180,1.525879,0.244141,-0.122070,0.074860,-0.759979,-0.035583,-0.644623,-80.106812,-14.304199,0.996094,0.139160,0.024902,1.098633,0.244141,0.183105,-0.212006,0.633698,0.291443,0.684448,-82.353516,143.464966
1510,0.978027,0.048828,0.249023,-0.671387,1.037598,-1.220703,-0.178223,-0.601410,0.104584,-0.771729,-74.926758,144.986572,1.004395,-0.057617,-0.159180,1.525879,0.244141,-0.122070,0.074860,-0.759979,-0.035583,-0.644623,-80.106812,-14.304199,0.996094,0.139160,0.024902,1.098633,0.244141,0.183105,-0.212006,0.633698,0.291443,0.684448,-82.353516,143.464966
1520,0.978027,0.048828,0.249023,-0.671387,1.037598,-1.220703,-0.178223,-0.601410,0.104584,-0.771729,-74.926758,144.986572,1.004395,-0.057617,-0.159180,1.525879,0.244141,-0.122070,0.074860,-0.759979,-0.035583,-0.644623,-80.106812,-14.304199,0.996094,0.139160,0.024902,1.098633,0.244141,0.183105,-0.212006,0.633698,0.291443,0.684448,-82.353516,143.464966
1530,0.977051,0.048340,0.251953,-0.061035,-0.122070,-0.854492,-0.178650,-0.601288,0.104584,-0.771729,-74.899292,144.854736,1.002930,-0.059570,-0.161621,1.525879,-0.488281,-0.488281,0.074615,-0.759949,-0.035522,-0.644684,-80.123291,-14.271240,0.996582,0.128418,0.026367,0.549316,0.122070,0.183105,-0.212311,0.633606,0.291718,0.684326,-82.353516,143.475952
1540,0.977051,0.048340,0.251953,-0.061035,-0.122070,-0.854492,-0.178650,-0.601288,0.104584,-0.771729,-74.899292,144.854736,1.002930,-0.059570,-0.161621,1.525879,-0.488281,-0.488281,0.074615,-0.759949,-0.035522,-0.644684,-80.123291,-14.271240,0.996582,0.128418,0.026367,0.549316,0.122070,0.183105,-0.212311,0.633606,0.291718,0.684326,-82.353516,143.475952
1550,0.977051,0.048340,0.251953,-0.061035,-0.122070,-0.854492,-0.178650,-0.601288,0.104584,-0.771729,-74.899292,144.854736,1.002930,-0.059570,-0.161621,1.525879,-0.488281,-0.488281,0.074615,-0.759949,-0.035522,-0.644684,-80.123291,-14.271240,0.996582,0.128418,0.026367,0.549316,0.122070,0.183105,-0.212311,0.633606,0.291718,0.684326,-82.353516,143.475952
1560,0.977051,0.048340,0.251953,-0.061035,-0.122070,-0.854492,-0.178955,-0.601349,0.104614,-0.771576,-74.904785,144.755859,1.007324,-0.073730,-0.167969,0.671387,-0.549316,-0.366211,0.074646,-0.760101,-0.035645,-0.644501,-80.101318,-14.155884,0.994629,0.134277,0.037109,0.671387,0.244141,0.305176,-0.212372,0.633575,0.291687,0.684357,-82.359009,143.547363
1570,0.977051,0.048340,0.251953,-0.061035,-0.122070,-0.854492,-0.178955,-0.601349,0.104614,-0.771576,-74.904785,144.755859,1.007324,-0.073730,-0.167969,0.671387,-0.549316,-0.366211,0.074646,-0.760101,-0.035645,-0.644501,-80.101318,-14.155884,0.994629,0.134277,0.037109,0.671387,0.244141,0.305176,-0.212372,0.633575,0.291687,0.684357,-82.359009,143.547363
1580,0.977051,0.048340,0.251953,-0.061035,-0.122070,-0.854492,-0.178955,-0.601349,0.104614,-0.771576,-74.904785,144.755859,1.007324,-0.073730,-0.167969,0.671387,-0.549316,-0.366211,0.074646,-0.760101,-0.035645,-0.644501,-80.101318,-14.155884,0.994629,0.134277,0.037109,0.671387,0.244141,0.305176,-0.212372,0.633575,0.291687,0.684357,-82.359009,143.547363
1590,0.976074,0.048828,0.254883,0.793457,-1.525879,-0.305176,-0.178955,-0.601715,0.104645,-0.771332,-74.943237,144.678955,1.000977,-0.076660,-0.153809,2.136230,-0.549316,-0.244141,0.075348,-0.760071,-0.036346,-0.644379,-80.095825,-14.095459,0.996094,0.122559,0.036133,0.793457,-0.183105,0.122070,-0.212372,0.633606,0.291534,0.684387,-82.369995,143.602295
1600,0.976074,0.048828,0.254883,0.793457,-1.525879,-0.305176,-0.178955,-0.601715,0.104645,-0.771332,-74.943237,144.678955,1.000977,-0.076660,-0.153809,2.136230,-0.549316,-0.244141,0.075348,-0.760071,-0.036346,-0.644379,-80.095825,-14.095459,0.996094,0.122559,0.036133,0.793457,-0.183105,0.122070,-0.212372,0.633606,0.291534,0.684387,-82.369995,143.602295
1610,0.976074,0.048828,0.254883,0.793457,-1.525879,-0.305176,-0.178955,-0.601715,0.104645,-0.771332,-74.943237,144.678955,1.000977,-0.076660,-0.153809,2.136230,-0.549316,-0.244141,0.075348,-0.760071,-0.036346,-0.644379,-80.095825,-14.095459,0.996094,0.122559,0.036133,0.793457,-0.183105,0.122070,-0.212372,0.633606,0.291534,0.684387,-82.369995,143.602295
1620,0.976074,0.048828,0.254883,0.793457,-1.525879,-0.305176,-0.178955,-0.601715,0.104645,-0.771332,-74.943237,144.678955,1.000977,-0.076660,-0.153809,2.136230,-0.549316,-0.244141,0.075348,-0.760071,-0.036346,-0.644379,-80.095825,-14.095459,0.996094,0.122559,0.036133,0.793457,-0.183105,0.122070,-0.212372,0.633606,0.291534,0.684387,-82.369995,143.602295
1630,0.975586,0.049805,0.258789,1.892090,-2.624512,0.183105,-0.178711,-0.602295,0.104584,-0.770935,-75.014648,144.613037,1.016113,-0.065918,-0.152344,2.197266,-0.854492,0.061035,0.076080,-0.760162,-0.037018,-0.644165,-80.068359,-14.024048,0.994629,0.135742,0.031250,1.464844,0.366211,0.244141,-0.212402,0.633606,0.291412,0.684418,-82.380981,143.662720
1640,0.975586,0.049805,0.258789,1.892090,-2.624512,0.183105,-0.178711,-0.602295,0.104584,-0.770935,-75.014648,144.613037,1.016113,-0.065918,-0.152344,2.197266,-0.854492,0.061035,0.076080,-0.760162,-0.037018,-0.644165,-80.068359,-14.024048,0.994629,0.135742,0.031250,1.464844,0.366211,0.244141,-0.212402,0.633606,0.291412,0.684418,-82.380981,143.662720
1650,0.975586,0.049805,0.258789,1.892090,-2.624512,0.183105,-0.178711,-0.602295,0.104584,-0.770935,-75.014648,144.613037,1.016113,-0.065918,-0.152344,2.197266,-0.854492,0.061035,0.076080,-0.760162,-0.037018,-0.644165,-80.068359,-14.024048,0.994629,0.135742,0.031250,1.464844,0.366211,0.244141,-0.212402,0.633606,0.291412,0.684418,-82.380981,143.662720
1660,0.975586,0.052734,0.261719,2.929688,-3.051758,0.610352,-0.178314,-0.602905,0.104401,-0.770569,-75.091553,144.580078,1.005859,-0.063477,-0.165039,2.929688,-0.244141,0.000000,0.076538,-0.760162,-0.037415,-0.644104,-80.062866,-13.985596,0.994141,0.129395,0.028809,0.915527,0.061035,0.305176,-0.212585,0.633575,0.291504,0.684387,-82.386475,143.695679
1670,0.975586,0.052734,0.261719,2.929688,-3.051758,0.610352,-0.178314,-0.602905,0.104401,-0.770569,-75.091553,144.580078,1.005859,-0.063477,-0.165039,2.929688,-0.244141,0.000000,0.076538,-0.760162,-0.037415,-0.644104,-80.062866,-13.985596,0.994141,0.129395,0.028809,0.915527,0.061035,0.305176,-0.212585,0.633575,0.291504,0.684387,-82.386475,143.695679
1680,0.975586,0.052734,0.261719,2.929688,-3.051758,0.610352,-0.178314,-0.602905,0.104401,-0.770569,-75.091553,144.580078,1.005859,-0.063477,-0.165039,2.929688,-0.244141,0.000000,0.076538,-0.760162,-0.037415,-0.644104,-80.062866,-13.985596,0.994141,0.129395,0.028809,0.915527,0.061035,0.305176,-0.212585,0.633575,0.291504,0.684387,-82.386475,143.695679
1690,0.978027,0.056152,0.260742,3.784180,-3.112793,0.915527,-0.177551,-0.603699,0.104004,-0.770172,-75.195923,144.580078,1.002930,-0.065430,-0.169434,1.220703,-0.976562,0.000000,0.076508,-0.760315,-0.037445,-0.643921,-80.040894,-13.919678,0.994629,0.125977,0.033691,0.549316,-0.122070,0.305176,-0.212524,0.633667,0.291321,0.684387,-82.397461,143.701172
1700,0.978027,0.056152,0.260742,3.784180,-3.112793,0.915527,-0.177551,-0.603699,0.104004,-0.770172,-75.195923,144.580078,1.002930,-0.065430,-0.169434,1.220703,-0.976562,0.000000,0.076508,-0.760315,-0.037445,-0.643921,-80.040894,-13.919678,0.994629,0.125977,0.033691,0.549316,-0.122070,0.305176,-0.212524,0.633667,0.291321,0.684387,-82.397461,143.701172
1710,0.978027,0.056152,0.260742,3.784180,-3.112793,0.915527,-0.177551,-0.603699,0.104004,-0.770172,-75.195923,144.580078,1.002930,-0.065430,-0.169434,1.220703,-0.976562,0.000000,0.076508,-0.760315,-0.037445,-0.643921,-80.040894,-13.919678,0.994629,0.125977,0.033691,0.549316,-0.122070,0.305176,-0.212524,0.633667,0.291321,0.684387,-82.397461,143.701172
1720,0.978027,0.056152,0.260742,3.784180,-3.112793,0.915527,-0.176727,-0.604401,0.103546,-0.769867,-75.283813,144.602051,1.011719,-0.075195,-0.154785,0.793457,-0.488281,0.061035,0.076965,-0.760376,-0.037872,-0.643768,-80.018921,-13.853760,0.998047,0.128906,0.029785,0.000000,-0.427246,0.183105,-0.212341,0.633820,0.291107,0.684387,-82.408447,143.624268
1730,0.978027,0.056152,0.260742,3.784180,-3.112793,0.915527,-0.176727,-0.604401,0.103546,-0.769867,-75.283813,144.602051,1.011719,-0.075195,-0.154785,0.793457,-0.488281,0.061035,0.076965,-0.760376,-0.037872,-0.643768,-80.018921,-13.853760,0.998047,0.128906,0.029785,0.000000,-0.427246,0.183105,-0.212341,0.633820,0.291107,0.684387,-82.408447,143.624268
1740,0.978027,0.056152,0.260742,3.784180,-3.112793,0.915527,-0.176727,-0.604401,0.103546,-0.769867,-75.283813,144.602051,1.011719,-0.075195,-0.154785,0.793457,-0.488281,0.061035,0.076965,-0.760376,-0.037872,-0.643768,-80.018921,-13.853760,0.998047,0.128906,0.029785,0.000000,-0.427246,0.183105,-0.212341,0.633820,0.291107,0.684387,-82.408447,143.624268
1750,0.980469,0.060547,0.256348,4.272461,-3.173828,1.159668,-0.175659,-0.605194,0.102875,-0.769592,-75.388184,144.662476,1.010254,-0.064941,-0.161621,0.732422,-0.061035,0.122070,0.077148,-0.760376,-0.037994,-0.643738,-80.013428,-13.853760,0.998047,0.131836,0.031738,0.366211,-0.244141,0.183105,-0.212250,0.633911,0.291016,0.684387,-82.413940,143.558350
1760,0.980469,0.060547,0.256348,4.272461,-3.173828,1.159668,-0.175659,-0.605194,0.102875,-0.769592,-75.388184,144.662476,1.010254,-0.064941,-0.161621,0.732422,-0.061035,0.122070,0.077148,-0.760376,-0.037994,-0.643738,-80.013428,-13.853760,0.998047,0.131836,0.031738,0.366211,-0.244141,0.183105,-0.212250,0.633911,0.291016,0.684387,-82.413940,143.558350
1770,0.980469,0.060547,0.256348,4.272461,-3.173828,1.159668,-0.175659,-0.605194,0.102875,-0.769592,-75.388184,144.662476,1.010254,-0.064941,-0.161621,0.732422,-0.061035,0.122070,0.077148,-0.760376,-0.037994,-0.643738,-80.013428,-13.853760,0.998047,0.131836,0.031738,0.366211,-0.244141,0.183105,-0.212250,0.633911,0.291016,0.684387,-82.413940,143.558350
1780,0.980469,0.060547,0.256348,4.272461,-3.173828,1.159668,-0.175659,-0.605194,0.102875,-0.769592,-75.388184,144.662476,1.010254,-0.064941,-0.161621,0.732422,-0.061035,0.122070,0.077148,-0.760376,-0.037994,-0.643738,-80.013428,-13.853760,0.998047,0.131836,0.031738,0.366211,-0.244141,0.183105,-0.212250,0.633911,0.291016,0.684387,-82.413940,143.558350
1790,0.983398,0.062988,0.250488,4.211426,-3.295898,1.342773,-0.174347,-0.606140,0.102112,-0.769226,-75.487061,144.722900,1.002441,-0.063965,-0.169922,0.610352,-0.427246,0.061035,0.076965,-0.760498,-0.037811,-0.643616,-80.002441,-13.848267,0.990234,0.130859,0.026367,0.427246,-0.305176,0.305176,-0.212372,0.633942,0.291107,0.684265,-82.419434,143.497925
1800,0.983398,0.062988,0.250488,4.211426,-3.295898,1.342773,-0.174347,-0.606140,0.102112,-0.769226,-75.487061,144.722900,1.002441,-0.063965,-0.169922,0.610352,-0.427246,0.061035,0.076965,-0.760498,-0.037811,-0.643616,-80.002441,-13.848267,0.990234,0.130859,0.026367,0.427246,-0.305176,0.305176,-0.212372,0.633942,0.291107,0.684265,-82.419434,143.497925
1810,0.983398,0.062988,0.250488,4.211426,-3.295898,1.342773,-0.174347,-0.606140,0.102112,-0.769226,-75.487061,144.722900,1.002441,-0.063965,-0.169922,0.610352,-0.427246,0.061035,0.076965,-0.760498,-0.037811,-0.643616,-80.002441,-13.848267,0.990234,0.130859,0.026367,0.427246,-0.305176,0.305176,-0.212372,0.633942,0.291107,0.684265,-82.419434,143.497925
1820,0.985352,0.063477,0.242676,3.723145,-3.295898,1.403809,-0.173187,-0.606995,0.101440,-0.768921,-75.591431,144.794312,1.007324,-0.063477,-0.169434,0.366211,-0.488281,0.061035,0.076782,-0.760590,-0.037659,-0.643555,-79.985962,-13.820801,1.001953,0.127930,0.027832,-0.549316,-0.427246,0.122070,-0.212311,0.634064,0.291016,0.684204,-82.430420,143.410034
1830,0.985352,0.063477,0.242676,3.723145,-3.295898,1.403809,-0.173187,-0.606995,0.101440,-0.768921,-75.591431,144.794312,1.007324,-0.063477,-0.169434,0.366211,-0.488281,0.061035,0.076782,-0.760590,-0.037659,-0.643555,-79.985962,-13.820801,1.001953,0.127930,0.027832,-0.549316,-0.427246,0.122070,-0.212311,0.634064,0.291016,0.684204,-82.430420,143.410034
1840,0.985352,0.063477,0.242676,3.723145,-3.295898,1.403809,-0.173187,-0.606995,0.101440,-0.768921,-75.591431,144.794312,1.007324,-0.063477,-0.169434,0.366211,-0.488281,0.061035,0.076782,-0.760590,-0.037659,-0.643555,-79.985962,-13.820801,1.001953,0.127930,0.027832,-0.549316,-0.427246,0.122070,-0.212311,0.634064,0.291016,0.684204,-82.430420,143.410034
1850,0.985352,0.063477,0.242676,3.723145,-3.295898,1.403809,-0.171906,-0.607971,0.100769,-0.768524,-75.717773,144.887695,0.999512,-0.078613,-0.172363,-0.732422,-0.305176,0.183105,0.076660,-0.760712,-0.037476,-0.643433,-79.969482,-13.831787,0.993164,0.126953,0.029297,-0.976562,-0.427246,0.183105,-0.212006,0.634277,0.290680,0.684235,-82.441406,143.305664
1860,0.985352,0.063477,0.242676,3.723145,-3.295898,1.403809,-0.171906,-0.607971,0.100769,-0.768524,-75.717773,144.887695,0.999512,-0.078613,-0.172363,-0.732422,-0.305176,0.183105,0.076660,-0.760712,-0.037476,-0.643433,-79.969482,-13.831787,0.993164,0.126953,0.029297,-0.976562,-0.427246,0.183105,-0.212006,0.634277,0.290680,0.684235,-82.441406,143.305664
1870,0.985352,0.063477,0.242676,3.723145,-3.295898,1.403809,-0.171906,-0.607971,0.100769,-0.768524,-75.717773,144.887695,0.999512,-0.078613,-0.172363,-0.732422,-0.305176,0.183105,0.076660,-0.760712,-0.037476,-0.643433,-79.969482,-13.831787,0.993164,0.126953,0.029297,-0.976562,-0.427246,0.183105,-0.212006,0.634277,0.290680,0.684235,-82.441406,143.305664
1880,0.984863,0.062988,0.238770,2.868652,-2.929688,1.403809,-0.170898,-0.608734,0.100281,-0.768188,-75.811157,144.959106,1.010254,-0.072266,-0.164062,0.000000,0.000000,0.122070,0.076843,-0.760742,-0.037567,-0.643341,-79.953003,-13.837280,0.992676,0.132812,0.025391,0.000000,-0.244141,0.061035,-0.211975,0.634338,0.290619,0.684204,-82.446899,143.250732
1890,0.984863,0.062988,0.238770,2.868652,-2.929688,1.403809,-0.170898,-0.608734,0.100281,-0.768188,-75.811157,144.959106,1.010254,-0.072266,-0.164062,0.000000,0.000000,0.122070,0.076843,-0.760742,-0.037567,-0.643341,-79.953003,-13.837280,0.992676,0.132812,0.025391,0.000000,-0.244141,0.061035,-0.211975,0.634338,0.290619,0.684204,-82.446899,143.250732
1900,0.984863,0.062988,0.238770,2.868652,-2.929688,1.403809,-0.170898,-0.608734,0.100281,-0.768188,-75.811157,144.959106,1.010254,-0.072266,-0.164062,0.000000,0.000000,0.122070,0.076843,-0.760742,-0.037567,-0.643341,-79.953003,-13.837280,0.992676,0.132812,0.025391,0.000000,-0.244141,0.061035,-0.211975,0.634338,0.290619,0.684204,-82.446899,143.250732
1910,0.984375,0.062012,0.235840,1.892090,-2.502441,0.976562,-0.170135,-0.609375,0.099945,-0.767914,-75.915527,145.019531,1.002930,-0.068848,-0.165039,0.000000,-0.183105,0.244141,0.076996,-0.760712,-0.037689,-0.643341,-79.958496,-13.848267,0.993164,0.123047,0.029297,-0.427246,-0.366211,0.183105,-0.211792,0.634521,0.290405,0.684174,-82.452393,143.157349
1920,0.984375,0.062012,0.235840,1.892090,-2.502441,0.976562,-0.170135,-0.609375,0.099945,-0.767914,-75.915527,145.019531,1.002930,-0.068848,-0.165039,0.000000,-0.183105,0.244141,0.076996,-0.760712,-0.037689,-0.643341,-79.958496,-13.848267,0.993164,0.123047,0.029297,-0.427246,-0.366211,0.183105,-0.211792,0.634521,0.290405,0.684174,-82.452393,143.157349
1930,0.984375,0.062012,0.235840,1.892090,-2.502441,0.976562,-0.170135,-0.609375,0.099945,-0.767914,-75.915527,145.019531,1.002930,-0.068848,-0.165039,0.000000,-0.183105,0.244141,0.076996,-0.760712,-0.037689,-0.643341,-79.958496,-13.848267,0.993164,0.123047,0.029297,-0.427246,-0.366211,0.183105,-0.211792,0.634521,0.290405,0.684174,-82.452393,143.157349
1940,0.984375,0.062012,0.235840,1.892090,-2.502441,0.976562,-0.170135,-0.609375,0.099945,-0.767914,-75.915527,145.019531,1.002930,-0.068848,-0.165039,0.000000,-0.183105,0.244141,0.076996,-0.760712,-0.037689,-0.643341,-79.958496,-13.848267,0.993164,0.123047,0.029297,-0.427246,-0.366211,0.183105,-0.211792,0.634521,0.290405,0.684174,-82.452393,143.157349
1950,0.982422,0.060547,0.236328,0.915527,-2.319336,0.610352,-0.169434,-0.610046,0.099670,-0.767548,-75.992432,145.046997,1.012695,-0.064941,-0.171875,-0.488281,0.000000,0.061035,0.076660,-0.760864,-0.037323,-0.643250,-79.936523,-13.842773,0.992188,0.133789,0.027344,-0.732422,-0.793457,0.244141,-0.211609,0.634705,0.290283,0.684143,-82.463379,142.992554
1960,0.982422,0.060547,0.236328,0.915527,-2.319336,0.610352,-0.169434,-0.610046,0.099670,-0.767548,-75.992432,145.046997,1.012695,-0.064941,-0.171875,-0.488281,0.000000,0.061035,0.076660,-0.760864,-0.037323,-0.643250,-79.936523,-13.842773,0.992188,0.133789,0.027344,-0.732422,-0.793457,0.244141,-0.211609,0.634705,0.290283,0.684143,-82.463379,142.992554
1970,0.982422,0.060547,0.236328,0.915527,-2.319336,0.610352,-0.169434,-0.610046,0.099670,-0.767548,-75.992432,145.046997,1.012695,-0.064941,-0.171875,-0.488281,0.000000,0.061035,0.076660,-0.760864,-0.037323,-0.643250,-79.936523,-13.842773,0.992188,0.133789,0.027344,-0.732422,-0.793457,0.244141,-0.211609,0.634705,0.290283,0.684143,-82.463379,142.992554
1980,0.982910,0.059082,0.235840,0.122070,-2.380371,0.244141,-0.169067,-0.610565,0.099579,-0.767242,-76.063843,145.046997,1.004395,-0.065918,-0.164551,-0.427246,0.183105,0.000000,0.076385,-0.760834,-0.037109,-0.643341,-79.947510,-13.870239,0.997559,0.127441,0.022461,-0.427246,-0.305176,0.061035,-0.211517,0.634827,0.290222,0.684052,-82.468872,142.860718
1990,0.982910,0.059082,0.235840,0.122070,-2.380371,0.244141,-0.169067,-0.610565,0.099579,-0.767242,-76.063843,145.046997,1.004395,-0.065918,-0.164551,-0.427246,0.183105,0.000000,0.076385,-0.760834,-0.037109,-0.643341,-79.947510,-13.870239,0.997559,0.127441,0.022461,-0.427246,-0.305176,0.061035,-0.211517,0.634827,0.290222,0.684052,-82.468872,142.860718
2000,0.982910,0.059082,0.235840,0.122070,-2.380371,0.244141,-0.169067,-0.610565,0.099579,-0.767242,-76.063843,145.046997,1.004395,-0.065918,-0.164551,-0.427246,0.183105,0.000000,0.076385,-0.760834,-0.037109,-0.643341,-79.947510,-13.870239,0.997559,0.127441,0.022461,-0.427246,-0.305176,0.061035,-0.211517,0.634827,0.290222,0.684052,-82.468872,142.860718
2010,0.982910,0.059082,0.235840,0.122070,-2.380371,0.244141,-0.168823,-0.611176,0.099579,-0.766815,-76.146240,145.003052,1.007812,-0.076172,-0.166992,-1.220703,-0.366211,-0.183105,0.076202,-0.760895,-0.036926,-0.643280,-79.942017,-13.864746,0.998535,0.122559,0.027344,-0.427246,-0.183105,0.000000,-0.211365,0.634949,0.290100,0.684082,-82.474365,142.794800
2020,0.982910,0.059082,0.235840,0.122070,-2.380371,0.244141,-0.168823,-0.611176,0.099579,-0.766815,-76.146240,145.003052,1.007812,-0.076172,-0.166992,-1.220703,-0.366211,-0.183105,0.076202,-0.760895,-0.036926,-0.643280,-79.942017,-13.864746,0.998535,0.122559,0.027344,-0.427246,-0.183105,0.000000,-0.211365,0.634949,0.290100,0.684082,-82.474365,142.794800
2030,0.982910,0.059082,0.235840,0.122070,-2.380371,0.244141,-0.168823,-0.611176,0.099579,-0.766815,-76.146240,145.003052,1.007812,-0.076172,-0.166992,-1.220703,-0.366211,-0.183105,0.076202,-0.760895,-0.036926,-0.643280,-79.942017,-13.864746,0.998535,0.122559,0.027344,-0.427246,-0.183105,0.000000,-0.211365,0.634949,0.290100,0.684082,-82.474365,142.794800
2040,0.983887,0.058105,0.235840,-0.610352,-2.502441,0.000000,-0.168823,-0.611664,0.099731,-0.766418,-76.217651,144.931641,1.010254,-0.075684,-0.157227,-1.037598,0.122070,-0.061035,0.076202,-0.760925,-0.036957,-0.643250,-79.931030,-13.831787,0.997070,0.127441,0.027832,-0.610352,-0.488281,0.000000,-0.211090,0.635101,0.289856,0.684113,-82.474365,142.690430
2050,0.983887,0.058105,0.235840,-0.610352,-2.502441,0.000000,-0.168823,-0.611664,0.099731,-0.766418,-76.217651,144.931641,1.010254,-0.075684,-0.157227,-1.037598,0.122070,-0.061035,0.076202,-0.760925,-0.036957,-0.643250,-79.931030,-13.831787,0.997070,0.127441,0.027832,-0.610352,-0.488281,0.000000,-0.211090,0.635101,0.289856,0.684113,-82.474365,142.690430
2060,0.983887,0.058105,0.235840,-0.610352,-2.502441,0.000000,-0.168823,-0.611664,0.099731,-0.766418,-76.217651,144.931641,1.010254,-0.075684,-0.157227,-1.037598,0.122070,-0.061035,0.076202,-0.760925,-0.036957,-0.643250,-79.931030,-13.831787,0.997070,0.127441,0.027832,-0.610352,-0.488281,0.000000,-0.211090,0.635101,0.289856,0.684113,-82.474365,142.690430
2070,0.984863,0.056152,0.235840,-1.220703,-2.563477,-0.061035,-0.168915,-0.612122,0.100006,-0.765991,-76.305542,144.832764,1.002930,-0.071289,-0.164062,-0.549316,-0.061035,0.366211,0.076233,-0.760925,-0.036926,-0.643280,-79.936523,-13.853760,0.996582,0.128906,0.025879,-0.915527,-0.427246,-0.305176,-0.210724,0.635284,0.289612,0.684174,-82.474365,142.564087
2080,0.984863,0.056152,0.235840,-1.220703,-2.563477,-0.061035,-0.168915,-0.612122,0.100006,-0.765991,-76.305542,144.832764,1.002930,-0.071289,-0.164062,-0.549316,-0.061035,0.366211,0.076233,-0.760925,-0.036926,-0.643280,-79.936523,-13.853760,0.996582,0.128906,0.025879,-0.915527,-0.427246,-0.305176,-0.210724,0.635284,0.289612,0.684174,-82.474365,142.564087
2090,0.984863,0.056152,0.235840,-1.220703,-2.563477,-0.061035,-0.168915,-0.612122,0.100006,-0.765991,-76.305542,144.832764,1.002930,-0.071289,-0.164062,-0.549316,-0.061035,0.366211,0.076233,-0.760925,-0.036926,-0.643280,-79.936523,-13.853760,0.996582,0.128906,0.025879,-0.915527,-0.427246,-0.305176,-0.210724,0.635284,0.289612,0.684174,-82.474365,142.564087
2100,0.984863,0.056152,0.235840,-1.220703,-2.563477,-0.061035,-0.168915,-0.612122,0.100006,-0.765991,-76.305542,144.832764,1.002930,-0.071289,-0.164062,-0.549316,-0.061035,0.366211,0.076233,-0.760925,-0.036926,-0.643280,-79.936523,-13.853760,0.996582,0.128906,0.025879,-0.915527,-0.427246,-0.305176,-0.210724,0.635284,0.289612,0.684174,-82.474365,142.564087
2110,0.985352,0.054199,0.235352,-1.708984,-2.319336,0.000000,-0.169159,-0.612579,0.100494,-0.765503,-76.371460,144.755859,1.005371,-0.072266,-0.167480,-0.732422,-0.122070,-0.122070,0.075989,-0.760986,-0.036682,-0.643219,-79.925537,-13.870239,0.996582,0.127930,0.025391,-0.305176,-0.366211,0.488281,-0.210571,0.635345,0.289612,0.684143,-82.463379,142.470703
2120,0.985352,0.054199,0.235352,-1.708984,-2.319336,0.000000,-0.169159,-0.612579,0.100494,-0.765503,-76.371460,144.755859,1.005371,-0.072266,-0.167480,-0.732422,-0.122070,-0.122070,0.075989,-0.760986,-0.036682,-0.643219,-79.925537,-13.870239,0.996582,0.127930,0.025391,-0.305176,-0.366211,0.488281,-0.210571,0.635345,0.289612,0.684143,-82.463379,142.470703
2130,0.985352,0.054199,0.235352,-1.708984,-2.319336,0.000000,-0.169159,-0.612579,0.100494,-0.765503,-76.371460,144.755859,1.005371,-0.072266,-0.167480,-0.732422,-0.122070,-0.122070,0.075989,-0.760986,-0.036682,-0.643219,-79.925537,-13.870239,0.996582,0.127930,0.025391,-0.305176,-0.366211,0.488281,-0.210571,0.635345,0.289612,0.684143,-82.463379,142.470703
2140,0.985840,0.051758,0.234863,-2.014160,-1.892090,0.061035,-0.169434,-0.612915,0.101013,-0.765106,-76.437378,144.689941,1.008789,-0.069336,-0.165527,-0.244141,-0.244141,-0.122070,0.076019,-0.761017,-0.036743,-0.643158,-79.920044,-13.831787,0.997559,0.125977,0.031738,0.000000,-0.427246,-0.244141,-0.210236,0.635529,0.289368,0.684204,-82.463379,142.344360
2150,0.985840,0.051758,0.234863,-2.014160,-1.892090,0.061035,-0.169434,-0.612915,0.101013,-0.765106,-76.437378,144.689941,1.008789,-0.069336,-0.165527,-0.244141,-0.244141,-0.122070,0.076019,-0.761017,-0.036743,-0.643158,-79.920044,-13.831787,0.997559,0.125977,0.031738,0.000000,-0.427246,-0.244141,-0.210236,0.635529,0.289368,0.684204,-82.463379,142.344360
2160,0.985840,0.051758,0.234863,-2.014160,-1.892090,0.061035,-0.169434,-0.612915,0.101013,-0.765106,-76.437378,144.689941,1.008789,-0.069336,-0.165527,-0.244141,-0.244141,-0.122070,0.076019,-0.761017,-0.036743,-0.643158,-79.920044,-13.831787,0.997559,0.125977,0.031738,0.000000,-0.427246,-0.244141,-0.210236,0.635529,0.289368,0.684204,-82.463379,142.344360
2170,0.985840,0.051758,0.234863,-2.014160,-1.892090,0.061035,-0.169830,-0.613190,0.101685,-0.764709,-76.497803,144.635010,1.011230,-0.073242,-0.154785,0.000000,-0.549316,0.000000,0.076050,-0.761108,-0.036804,-0.643066,-79.909058,-13.804321,0.995605,0.132812,0.030762,-0.183105,-0.732422,-0.183105,-0.209869,0.635712,0.289154,0.684235,-82.463379,142.201538
2180,0.985840,0.051758,0.234863,-2.014160,-1.892090,0.061035,-0.169830,-0.613190,0.101685,-0.764709,-76.497803,144.635010,1.011230,-0.073242,-0.154785,0.000000,-0.549316,0.000000,0.076050,-0.761108,-0.036804,-0.643066,-79.909058,-13.804321,0.995605,0.132812,0.030762,-0.183105,-0.732422,-0.183105,-0.209869,0.635712,0.289154,0.684235,-82.463379,142.201538
2190,0.985840,0.051758,0.234863,-2.014160,-1.892090,0.061035,-0.169830,-0.613190,0.101685,-0.764709,-76.497803,144.635010,1.011230,-0.073242,-0.154785,0.000000,-0.549316,0.000000,0.076050,-0.761108,-0.036804,-0.643066,-79.909058,-13.804321,0.995605,0.132812,0.030762,-0.183105,-0.732422,-0.183105,-0.209869,0.635712,0.289154,0.684235,-82.463379,142.201538
2200,0.985840,0.050781,0.232422,-2.014160,-1.586914,0.244141,-0.170166,-0.613373,0.102295,-0.764404,-76.541748,144.618530,1.008301,-0.074219,-0.159668,0.366211,-0.183105,0.122070,0.076385,-0.761078,-0.037048,-0.643036,-79.903564,-13.798828,0.996094,0.128418,0.030762,-0.244141,-0.915527,0.000000,-0.209473,0.635956,0.288910,0.684235,-82.457886,142.003784
2210,0.985840,0.050781,0.232422,-2.014160,-1.586914,0.244141,-0.170166,-0.613373,0.102295,-0.764404,-76.541748,144.618530,1.008301,-0.074219,-0.159668,0.366211,-0.183105,0.122070,0.076385,-0.761078,-0.037048,-0.643036,-79.903564,-13.798828,0.996094,0.128418,0.030762,-0.244141,-0.915527,0.000000,-0.209473,0.635956,0.288910,0.684235,-82.457886,142.003784
2220,0.985840,0.050781,0.232422,-2.014160,-1.586914,0.244141,-0.170166,-0.613373,0.102295,-0.764404,-76.541748,144.618530,1.008301,-0.074219,-0.159668,0.366211,-0.183105,0.122070,0.076385,-0.761078,-0.037048,-0.643036,-79.903564,-13.798828,0.996094,0.128418,0.030762,-0.244141,-0.915527,0.000000,-0.209473,0.635956,0.288910,0.684235,-82.457886,142.003784
2230,0.986328,0.050293,0.229980,-1.708984,-1.220703,0.366211,-0.170441,-0.613525,0.102844,-0.764130,-76.591187,144.613037,1.003906,-0.064941,-0.171387,0.366211,0.305176,0.061035,0.076263,-0.761108,-0.036896,-0.643036,-79.898071,-13.831787,0.994629,0.132812,0.021484,0.427246,-0.793457,0.244141,-0.209473,0.636139,0.289001,0.684021,-82.468872,141.773071
2240,0.986328,0.050293,0.229980,-1.708984,-1.220703,0.366211,-0.170441,-0.613525,0.102844,-0.764130,-76.591187,144.613037,1.003906,-0.064941,-0.171387,0.366211,0.305176,0.061035,0.076263,-0.761108,-0.036896,-0.643036,-79.898071,-13.831787,0.994629,0.132812,0.021484,0.427246,-0.793457,0.244141,-0.209473,0.636139,0.289001,0.684021,-82.468872,141.773071
2250,0.986328,0.050293,0.229980,-1.708984,-1.220703,0.366211,-0.170441,-0.613525,0.102844,-0.764130,-76.591187,144.613037,1.003906,-0.064941,-0.171387,0.366211,0.305176,0.061035,0.076263,-0.761108,-0.036896,-0.643036,-79.898071,-13.831787,0.994629,0.132812,0.021484,0.427246,-0.793457,0.244141,-0.209473,0.636139,0.289001,0.684021,-82.468872,141.773071
2260,0.986328,0.050293,0.229980,-1.708984,-1.220703,0.366211,-0.170441,-0.613525,0.102844,-0.764130,-76.591187,144.613037,1.003906,-0.064941,-0.171387,0.366211,0.305176,0.061035,0.076263,-0.761108,-0.036896,-0.643036,-79.898071,-13.831787,0.994629,0.132812,0.021484,0.427246,-0.793457,0.244141,-0.209473,0.636139,0.289001,0.684021,-82.468872,141.773071
2270,0.987305,0.050781,0.229492,-1.281738,-0.732422,0.427246,-0.170654,-0.613647,0.103424,-0.763916,-76.624146,144.629517,1.000977,-0.060547,-0.176270,-0.183105,-0.061035,-0.183105,0.075684,-0.761169,-0.036407,-0.643036,-79.898071,-13.826294,0.996094,0.130371,0.014648,-0.305176,-0.488281,0.000000,-0.209808,0.636108,0.289429,0.683746,-82.474365,141.630249
2280,0.987305,0.050781,0.229492,-1.281738,-0.732422,0.427246,-0.170654,-0.613647,0.103424,-0.763916,-76.624146,144.629517,1.000977,-0.060547,-0.176270,-0.183105,-0.061035,-0.183105,0.075684,-0.761169,-0.036407,-0.643036,-79.898071,-13.826294,0.996094,0.130371,0.014648,-0.305176,-0.488281,0.000000,-0.209808,0.636108,0.289429,0.683746,-82.474365,141.630249
2290,0.987305,0.050781,0.229492,-1.281738,-0.732422,0.427246,-0.170654,-0.613647,0.103424,-0.763916,-76.624146,144.629517,1.000977,-0.060547,-0.176270,-0.183105,-0.061035,-0.183105,0.075684,-0.761169,-0.036407,-0.643036,-79.898071,-13.826294,0.996094,0.130371,0.014648,-0.305176,-0.488281,0.000000,-0.209808,0.636108,0.289429,0.683746,-82.474365,141.630249
2300,0.987793,0.052246,0.231934,-0.671387,0.061035,0.427246,-0.170807,-0.613678,0.103790,-0.763794,-76.646118,144.656982,0.996094,-0.073730,-0.185547,-1.281738,-0.671387,-0.122070,0.075104,-0.761414,-0.035919,-0.642883,-79.876099,-13.776855,0.992188,0.122070,0.020508,0.122070,-0.122070,0.061035,-0.210022,0.636139,0.289612,0.683594,-82.485352,141.547852
2310,0.987793,0.052246,0.231934,-0.671387,0.061035,0.427246,-0.170807,-0.613678,0.103790,-0.763794,-76.646118,144.656982,0.996094,-0.073730,-0.185547,-1.281738,-0.671387,-0.122070,0.075104,-0.761414,-0.035919,-0.642883,-79.876099,-13.776855,0.992188,0.122070,0.020508,0.122070,-0.122070,0.061035,-0.210022,0.636139,0.289612,0.683594,-82.485352,141.547852
2320,0.987793,0.052246,0.231934,-0.671387,0.061035,0.427246,-0.170807,-0.613678,0.103790,-0.763794,-76.646118,144.656982,0.996094,-0.073730,-0.185547,-1.281738,-0.671387,-0.122070,0.075104,-0.761414,-0.035919,-0.642883,-79.876099,-13.776855,0.992188,0.122070,0.020508,0.122070,-0.122070,0.061035,-0.210022,0.636139,0.289612,0.683594,-82.485352,141.547852
2330,0.987793,0.052246,0.231934,-0.671387,0.061035,0.427246,-0.170868,-0.613586,0.104034,-0.763824,-76.646118,144.722900,1.006836,-0.080566,-0.168945,0.549316,-0.366211,0.000000,0.075378,-0.761536,-0.036163,-0.642670,-79.843140,-13.716431,0.996094,0.134766,0.024902,-0.427246,-0.122070,-0.122070,-0.209991,0.636139,0.289642,0.683594,-82.479858,141.531372
2340,0.987793,0.052246,0.231934,-0.671387,0.061035,0.427246,-0.170868,-0.613586,0.104034,-0.763824,-76.646118,144.722900,1.006836,-0.080566,-0.168945,0.549316,-0.366211,0.000000,0.075378,-0.761536,-0.036163,-0.642670,-79.843140,-13.716431,0.996094,0.134766,0.024902,-0.427246,-0.122070,-0.122070,-0.209991,0.636139,0.289642,0.683594,-82.479858,141.531372
2350,0.987793,0.052246,0.231934,-0.671387,0.061035,0.427246,-0.170868,-0.613586,0.104034,-0.763824,-76.646118,144.722900,1.006836,-0.080566,-0.168945,0.549316,-0.366211,0.000000,0.075378,-0.761536,-0.036163,-0.642670,-79.843140,-13.716431,0.996094,0.134766,0.024902,-0.427246,-0.122070,-0.122070,-0.209991,0.636139,0.289642,0.683594,-82.479858,141.531372
2360,0.988770,0.054199,0.235840,0.000000,1.159668,0.305176,-0.170837,-0.613312,0.103973,-0.764069,-76.613159,144.788818,1.010254,-0.076172,-0.149414,1.403809,-0.488281,0.000000,0.076233,-0.761475,-0.036957,-0.642578,-79.837646,-13.677979,0.991211,0.130859,0.037598,0.976562,-0.427246,0.244141,-0.209412,0.636383,0.289032,0.683777,-82.485352,141.448975
2370,0.988770,0.054199,0.235840,0.000000,1.159668,0.305176,-0.170837,-0.613312,0.103973,-0.764069,-76.613159,144.788818,1.010254,-0.076172,-0.149414,1.403809,-0.488281,0.000000,0.076233,-0.761475,-0.036957,-0.642578,-79.837646,-13.677979,0.991211,0.130859,0.037598,0.976562,-0.427246,0.244141,-0.209412,0.636383,0.289032,0.683777,-82.485352,141.448975
2380,0.988770,0.054199,0.235840,0.000000,1.159668,0.305176,-0.170837,-0.613312,0.103973,-0.764069,-76.613159,144.788818,1.010254,-0.076172,-0.149414,1.403809,-0.488281,0.000000,0.076233,-0.761475,-0.036957,-0.642578,-79.837646,-13.677979,0.991211,0.130859,0.037598,0.976562,-0.427246,0.244141,-0.209412,0.636383,0.289032,0.683777,-82.485352,141.448975
2390,0.988281,0.055176,0.238281,0.427246,2.136230,0.122070,-0.170776,-0.612915,0.103821,-0.764404,-76.547241,144.871216,1.011719,-0.059570,-0.160156,1.037598,0.305176,0.000000,0.076447,-0.761414,-0.037170,-0.642639,-79.843140,-13.666992,0.995605,0.127930,0.025879,0.976562,-0.427246,0.427246,-0.209381,0.636505,0.289001,0.683685,-82.490845,141.344604
2400,0.988281,0.055176,0.238281,0.427246,2.136230,0.122070,-0.170776,-0.612915,0.103821,-0.764404,-76.547241,144.871216,1.011719,-0.059570,-0.160156,1.037598,0.305176,0.000000,0.076447,-0.761414,-0.037170,-0.642639,-79.843140,-13.666992,0.995605,0.127930,0.025879,0.976562,-0.427246,0.427246,-0.209381,0.636505,0.289001,0.683685,-82.490845,141.344604
2410,0.988281,0.055176,0.238281,0.427246,2.136230,0.122070,-0.170776,-0.612915,0.103821,-0.764404,-76.547241,144.871216,1.011719,-0.059570,-0.160156,1.037598,0.305176,0.000000,0.076447,-0.761414,-0.037170,-0.642639,-79.843140,-13.666992,0.995605,0.127930,0.025879,0.976562,-0.427246,0.427246,-0.209381,0.636505,0.289001,0.683685,-82.490845,141.344604
2420,0.988281,0.055176,0.238281,0.427246,2.136230,0.122070,-0.170776,-0.612915,0.103821,-0.764404,-76.547241,144.871216,1.011719,-0.059570,-0.160156,1.037598,0.305176,0.000000,0.076447,-0.761414,-0.037170,-0.642639,-79.843140,-13.666992,0.995605,0.127930,0.025879,0.976562,-0.427246,0.427246,-0.209381,0.636505,0.289001,0.683685,-82.490845,141.344604
2430,0.987793,0.056152,0.238770,0.732422,3.051758,0.000000,-0.170715,-0.612335,0.103485,-0.764954,-76.464844,144.948120,1.009277,-0.061035,-0.179199,1.892090,-0.427246,0.000000,0.076233,-0.761444,-0.036987,-0.642609,-79.848633,-13.661499,0.996582,0.130859,0.019043,0.732422,-0.183105,0.305176,-0.209839,0.636414,0.289459,0.683441,-82.496338,141.289673
2440,0.987793,0.056152,0.238770,0.732422,3.051758,0.000000,-0.170715,-0.612335,0.103485,-0.764954,-76.464844,144.948120,1.009277,-0.061035,-0.179199,1.892090,-0.427246,0.000000,0.076233,-0.761444,-0.036987,-0.642609,-79.848633,-13.661499,0.996582,0.130859,0.019043,0.732422,-0.183105,0.305176,-0.209839,0.636414,0.289459,0.683441,-82.496338,141.289673
2450,0.987793,0.056152,0.238770,0.732422,3.051758,0.000000,-0.170715,-0.612335,0.103485,-0.764954,-76.464844,144.948120,1.009277,-0.061035,-0.179199,1.892090,-0.427246,0.000000,0.076233,-0.761444,-0.036987,-0.642609,-79.848633,-13.661499,0.996582,0.130859,0.019043,0.732422,-0.183105,0.305176,-0.209839,0.636414,0.289459,0.683441,-82.496338,141.289673
2460,0.986328,0.055176,0.235840,0.732422,3.723145,-0.244141,-0.170654,-0.611694,0.103088,-0.765533,-76.371460,145.030518,1.005859,-0.068359,-0.182129,0.183105,-0.061035,0.122070,0.076111,-0.761597,-0.036804,-0.642487,-79.821167,-13.650513,0.992676,0.123535,0.021973,-0.122070,-0.183105,0.305176,-0.209930,0.636475,0.289459,0.683380,-82.507324,141.251221
2470,0.986328,0.055176,0.235840,0.732422,3.723145,-0.244141,-0.170654,-0.611694,0.103088,-0.765533,-76.371460,145.030518,1.005859,-0.068359,-0.182129,0.183105,-0.061035,0.122070,0.076111,-0.761597,-0.036804,-0.642487,-79.821167,-13.650513,0.992676,0.123535,0.021973,-0.122070,-0.183105,0.305176,-0.209930,0.636475,0.289459,0.683380,-82.507324,141.251221
2480,0.986328,0.055176,0.235840,0.732422,3.723145,-0.244141,-0.170654,-0.611694,0.103088,-0.765533,-76.371460,145.030518,1.005859,-0.068359,-0.182129,0.183105,-0.061035,0.122070,0.076111,-0.761597,-0.036804,-0.642487,-79.821167,-13.650513,0.992676,0.123535,0.021973,-0.122070,-0.183105,0.305176,-0.209930,0.636475,0.289459,0.683380,-82.507324,141.251221
2490,0.986328,0.055176,0.235840,0.732422,3.723145,-0.244141,-0.170624,-0.610901,0.102570,-0.766235,-76.239624,145.112915,1.004395,-0.071777,-0.173340,-0.122070,0.854492,0.061035,0.076019,-0.761536,-0.036652,-0.642578,-79.826660,-13.688965,1.000000,0.131348,0.020020,-0.793457,0.061035,0.000000,-0.210022,0.636444,0.289490,0.683350,-82.512817,141.262207
2500,0.986328,0.055176,0.235840,0.732422,3.723145,-0.244141,-0.170624,-0.610901,0.102570,-0.766235,-76.239624,145.112915,1.004395,-0.071777,-0.173340,-0.122070,0.854492,0.061035,0.076019,-0.761536,-0.036652,-0.642578,-79.826660,-13.688965,1.000000,0.131348,0.020020,-0.793457,0.061035,0.000000,-0.210022,0.636444,0.289490,0.683350,-82.512817,141.262207
2510,0.986328,0.055176,0.235840,0.732422,3.723145,-0.244141,-0.170624,-0.610901,0.102570,-0.766235,-76.239624,145.112915,1.004395,-0.071777,-0.173340,-0.122070,0.854492,0.061035,0.076019,-0.761536,-0.036652,-0.642578,-79.826660,-13.688965,1.000000,0.131348,0.020020,-0.793457,0.061035,0.000000,-0.210022,0.636444,0.289490,0.683350,-82.512817,141.262207
2520,0.983887,0.053711,0.235352,0.549316,4.211426,-0.610352,-0.170746,-0.610107,0.102142,-0.766907,-76.118774,145.156860,1.004883,-0.069824,-0.179199,-0.915527,0.366211,0.305176,0.075714,-0.761536,-0.036316,-0.642639,-79.832153,-13.760376,0.997559,0.126953,0.022949,-1.037598,0.244141,0.000000,-0.209900,0.636475,0.289337,0.683441,-82.512817,141.300659
2530,0.983887,0.053711,0.235352,0.549316,4.211426,-0.610352,-0.170746,-0.610107,0.102142,-0.766907,-76.118774,145.156860,1.004883,-0.069824,-0.179199,-0.915527,0.366211,0.305176,0.075714,-0.761536,-0.036316,-0.642639,-79.832153,-13.760376,0.997559,0.126953,0.022949,-1.037598,0.244141,0.000000,-0.209900,0.636475,0.289337,0.683441,-82.512817,141.300659
2540,0.983887,0.053711,0.235352,0.549316,4.211426,-0.610352,-0.170746,-0.610107,0.102142,-0.766907,-76.118774,145.156860,1.004883,-0.069824,-0.179199,-0.915527,0.366211,0.305176,0.075714,-0.761536,-0.036316,-0.642639,-79.832153,-13.760376,0.997559,0.126953,0.022949,-1.037598,0.244141,0.000000,-0.209900,0.636475,0.289337,0.683441,-82.512817,141.300659
2550,0.981445,0.053711,0.236328,0.183105,4.577637,-0.915527,-0.170959,-0.609131,0.101654,-0.767700,-75.964966,145.178833,1.004883,-0.067871,-0.178223,-1.098633,0.915527,0.122070,0.075256,-0.761536,-0.035797,-0.642700,-79.832153,-13.831787,0.993164,0.134277,0.020996,-0.427246,0.305176,0.000000,-0.209808,0.636444,0.289246,0.683533,-82.512817,141.355591
2560,0.981445,0.053711,0.236328,0.183105,4.577637,-0.915527,-0.170959,-0.609131,0.101654,-0.767700,-75.964966,145.178833,1.004883,-0.067871,-0.178223,-1.098633,0.915527,0.122070,0.075256,-0.761536,-0.035797,-0.642700,-79.832153,-13.831787,0.993164,0.134277,0.020996,-0.427246,0.305176,0.000000,-0.209808,0.636444,0.289246,0.683533,-82.512817,141.355591
2570,0.981445,0.053711,0.236328,0.183105,4.577637,-0.915527,-0.170959,-0.609131,0.101654,-0.767700,-75.964966,145.178833,1.004883,-0.067871,-0.178223,-1.098633,0.915527,0.122070,0.075256,-0.761536,-0.035797,-0.642700,-79.832153,-13.831787,0.993164,0.134277,0.020996,-0.427246,0.305176,0.000000,-0.209808,0.636444,0.289246,0.683533,-82.512817,141.355591
2580,0.981445,0.053711,0.236328,0.183105,4.577637,-0.915527,-0.170959,-0.609131,0.101654,-0.767700,-75.964966,145.178833,1.004883,-0.067871,-0.178223,-1.098633,0.915527,0.122070,0.075256,-0.761536,-0.035797,-0.642700,-79.832153,-13.831787,0.993164,0.134277,0.020996,-0.427246,0.305176,0.000000,-0.209808,0.636444,0.289246,0.683533,-82.512817,141.355591
2590,0.979492,0.054199,0.240723,0.000000,4.699707,-1.281738,-0.171265,-0.608246,0.101227,-0.768372,-75.822144,145.184326,1.000488,-0.064941,-0.165039,-0.976562,0.915527,0.000000,0.074799,-0.761414,-0.035339,-0.642914,-79.859619,-13.919678,0.997559,0.127441,0.024902,-0.671387,0.305176,0.061035,-0.209747,0.636414,0.289124,0.683624,-82.507324,141.421509
2600,0.979492,0.054199,0.240723,0.000000,4.699707,-1.281738,-0.171265,-0.608246,0.101227,-0.768372,-75.822144,145.184326,1.000488,-0.064941,-0.165039,-0.976562,0.915527,0.000000,0.074799,-0.761414,-0.035339,-0.642914,-79.859619,-13.919678,0.997559,0.127441,0.024902,-0.671387,0.305176,0.061035,-0.209747,0.636414,0.289124,0.683624,-82.507324,141.421509
2610,0.979492,0.054199,0.240723,0.000000,4.699707,-1.281738,-0.171265,-0.608246,0.101227,-0.768372,-75.822144,145.184326,1.000488,-0.064941,-0.165039,-0.976562,0.915527,0.000000,0.074799,-0.761414,-0.035339,-0.642914,-79.859619,-13.919678,0.997559,0.127441,0.024902,-0.671387,0.305176,0.061035,-0.209747,0.636414,0.289124,0.683624,-82.507324,141.421509
2620,0.979492,0.054199,0.240723,0.000000,4.699707,-1.281738,-0.171631,-0.607361,0.100800,-0.769043,-75.657349,145.145874,1.008789,-0.079590,-0.163574,-2.319336,0.732422,0.122070,0.074615,-0.761353,-0.035156,-0.643005,-79.876099,-13.963623,0.997070,0.125488,0.027344,-0.671387,0.427246,-0.061035,-0.209473,0.636444,0.288757,0.683838,-82.507324,141.536865
2630,0.979492,0.054199,0.240723,0.000000,4.699707,-1.281738,-0.171631,-0.607361,0.100800,-0.769043,-75.657349,145.145874,1.008789,-0.079590,-0.163574,-2.319336,0.732422,0.122070,0.074615,-0.761353,-0.035156,-0.643005,-79.876099,-13.963623,0.997070,0.125488,0.027344,-0.671387,0.427246,-0.061035,-0.209473,0.636444,0.288757,0.683838,-82.507324,141.536865
2640,0.979492,0.054199,0.240723,0.000000,4.699707,-1.281738,-0.171631,-0.607361,0.100800,-0.769043,-75.657349,145.145874,1.008789,-0.079590,-0.163574,-2.319336,0.732422,0.122070,0.074615,-0.761353,-0.035156,-0.643005,-79.876099,-13.963623,0.997070,0.125488,0.027344,-0.671387,0.427246,-0.061035,-0.209473,0.636444,0.288757,0.683838,-82.507324,141.536865
2650,0.979004,0.055664,0.243164,-0.122070,4.333496,-1.586914,-0.172119,-0.606415,0.100281,-0.769745,-75.520020,145.074463,1.012695,-0.081543,-0.157715,-0.305176,0.732422,-0.061035,0.074860,-0.761261,-0.035370,-0.643097,-79.887085,-13.974609,0.995117,0.124023,0.030762,-0.305176,0.244141,-0.061035,-0.209076,0.636536,0.288239,0.684082,-82.507324,141.619263
2660,0.979004,0.055664,0.243164,-0.122070,4.333496,-1.586914,-0.172119,-0.606415,0.100281,-0.769745,-75.520020,145.074463,1.012695,-0.081543,-0.157715,-0.305176,0.732422,-0.061035,0.074860,-0.761261,-0.035370,-0.643097,-79.887085,-13.974609,0.995117,0.124023,0.030762,-0.305176,0.244141,-0.061035,-0.209076,0.636536,0.288239,0.684082,-82.507324,141.619263
2670,0.979004,0.055664,0.243164,-0.122070,4.333496,-1.586914,-0.172119,-0.606415,0.100281,-0.769745,-75.520020,145.074463,1.012695,-0.081543,-0.157715,-0.305176,0.732422,-0.061035,0.074860,-0.761261,-0.035370,-0.643097,-79.887085,-13.974609,0.995117,0.124023,0.030762,-0.305176,0.244141,-0.061035,-0.209076,0.636536,0.288239,0.684082,-82.507324,141.619263
2680,0.979492,0.057617,0.248047,-0.244141,3.479004,-1.831055,-0.172577,-0.605743,0.099823,-0.770264,-75.399170,144.964600,1.002930,-0.070312,-0.160645,-0.183105,0.915527,0.122070,0.075073,-0.761078,-0.035522,-0.643280,-79.909058,-14.035034,0.991699,0.126953,0.021973,-0.488281,0.061035,-0.061035,-0.208862,0.636566,0.288025,0.684204,-82.507324,141.652222
2690,0.979492,0.057617,0.248047,-0.244141,3.479004,-1.831055,-0.172577,-0.605743,0.099823,-0.770264,-75.399170,144.964600,1.002930,-0.070312,-0.160645,-0.183105,0.915527,0.122070,0.075073,-0.761078,-0.035522,-0.643280,-79.909058,-14.035034,0.991699,0.126953,0.021973,-0.488281,0.061035,-0.061035,-0.208862,0.636566,0.288025,0.684204,-82.507324,141.652222
2700,0.979492,0.057617,0.248047,-0.244141,3.479004,-1.831055,-0.172577,-0.605743,0.099823,-0.770264,-75.399170,144.964600,1.002930,-0.070312,-0.160645,-0.183105,0.915527,0.122070,0.075073,-0.761078,-0.035522,-0.643280,-79.909058,-14.035034,0.991699,0.126953,0.021973,-0.488281,0.061035,-0.061035,-0.208862,0.636566,0.288025,0.684204,-82.507324,141.652222
2710,0.979492,0.059082,0.248047,-0.366211,2.258301,-2.014160,-0.173096,-0.605164,0.099335,-0.770660,-75.289307,144.794312,1.004395,-0.069824,-0.170410,-0.122070,0.854492,-0.183105,0.074860,-0.760986,-0.035339,-0.643433,-79.931030,-14.095459,1.001465,0.128906,0.019043,-0.122070,0.244141,-0.122070,-0.208862,0.636536,0.288025,0.684235,-82.501831,141.685181
2720,0.979492,0.059082,0.248047,-0.366211,2.258301,-2.014160,-0.173096,-0.605164,0.099335,-0.770660,-75.289307,144.794312,1.004395,-0.069824,-0.170410,-0.122070,0.854492,-0.183105,0.074860,-0.760986,-0.035339,-0.643433,-79.931030,-14.095459,1.001465,0.128906,0.019043,-0.122070,0.244141,-0.122070,-0.208862,0.636536,0.288025,0.684235,-82.501831,141.685181
2730,0.979492,0.059082,0.248047,-0.366211,2.258301,-2.014160,-0.173096,-0.605164,0.099335,-0.770660,-75.289307,144.794312,1.004395,-0.069824,-0.170410,-0.122070,0.854492,-0.183105,0.074860,-0.760986,-0.035339,-0.643433,-79.931030,-14.095459,1.001465,0.128906,0.019043,-0.122070,0.244141,-0.122070,-0.208862,0.636536,0.288025,0.684235,-82.501831,141.685181
2740,0.979492,0.059082,0.248047,-0.366211,2.258301,-2.014160,-0.173096,-0.605164,0.099335,-0.770660,-75.289307,144.794312,1.004395,-0.069824,-0.170410,-0.122070,0.854492,-0.183105,0.074860,-0.760986,-0.035339,-0.643433,-79.931030,-14.095459,1.001465,0.128906,0.019043,-0.122070,0.244141,-0.122070,-0.208862,0.636536,0.288025,0.684235,-82.501831,141.685181
2750,0.978027,0.060547,0.254883,-0.488281,1.098633,-2.014160,-0.173584,-0.604828,0.098969,-0.770844,-75.217896,144.618530,1.000488,-0.070801,-0.171387,0.000000,0.488281,0.000000,0.074738,-0.760925,-0.035217,-0.643524,-79.947510,-14.128418,0.996094,0.127930,0.024902,-0.305176,0.610352,-0.427246,-0.208984,0.636383,0.288147,0.684296,-82.496338,141.784058
2760,0.978027,0.060547,0.254883,-0.488281,1.098633,-2.014160,-0.173584,-0.604828,0.098969,-0.770844,-75.217896,144.618530,1.000488,-0.070801,-0.171387,0.000000,0.488281,0.000000,0.074738,-0.760925,-0.035217,-0.643524,-79.947510,-14.128418,0.996094,0.127930,0.024902,-0.305176,0.610352,-0.427246,-0.208984,0.636383,0.288147,0.684296,-82.496338,141.784058
2770,0.978027,0.060547,0.254883,-0.488281,1.098633,-2.014160,-0.173584,-0.604828,0.098969,-0.770844,-75.217896,144.618530,1.000488,-0.070801,-0.171387,0.000000,0.488281,0.000000,0.074738,-0.760925,-0.035217,-0.643524,-79.947510,-14.128418,0.996094,0.127930,0.024902,-0.305176,0.610352,-0.427246,-0.208984,0.636383,0.288147,0.684296,-82.496338,141.784058
2780,0.978027,0.060547,0.254883,-0.488281,1.098633,-2.014160,-0.174103,-0.604614,0.098663,-0.770935,-75.157471,144.382324,1.005859,-0.077148,-0.171387,-0.427246,0.305176,-0.122070,0.074768,-0.760956,-0.035217,-0.643463,-79.936523,-14.128418,0.989746,0.125488,0.028320,-0.854492,0.366211,-0.427246,-0.208618,0.636383,0.287842,0.684540,-82.479858,141.888428
2790,0.978027,0.060547,0.254883,-0.488281,1.098633,-2.014160,-0.174103,-0.604614,0.098663,-0.770935,-75.157471,144.382324,1.005859,-0.077148,-0.171387,-0.427246,0.305176,-0.122070,0.074768,-0.760956,-0.035217,-0.643463,-79.936523,-14.128418,0.989746,0.125488,0.028320,-0.854492,0.366211,-0.427246,-0.208618,0.636383,0.287842,0.684540,-82.479858,141.888428
2800,0.978027,0.060547,0.254883,-0.488281,1.098633,-2.014160,-0.174103,-0.604614,0.098663,-0.770935,-75.157471,144.382324,1.005859,-0.077148,-0.171387,-0.427246,0.305176,-0.122070,0.074768,-0.760956,-0.035217,-0.643463,-79.936523,-14.128418,0.989746,0.125488,0.028320,-0.854492,0.366211,-0.427246,-0.208618,0.636383,0.287842,0.684540,-82.479858,141.888428
2810,0.978027,0.062012,0.254395,-0.549316,0.061035,-1.892090,-0.174622,-0.604645,0.098358,-0.770844,-75.140991,144.168091,1.003906,-0.074219,-0.147949,0.183105,0.610352,0.000000,0.075226,-0.760773,-0.035645,-0.643616,-79.958496,-14.150391,0.999023,0.129395,0.029785,0.305176,0.122070,-0.305176,-0.208252,0.636414,0.287567,0.684723,-82.468872,141.921387
2820,0.978027,0.062012,0.254395,-0.549316,0.061035,-1.892090,-0.174622,-0.604645,0.098358,-0.770844,-75.140991,144.168091,1.003906,-0.074219,-0.147949,0.183105,0.610352,0.000000,0.075226,-0.760773,-0.035645,-0.643616,-79.958496,-14.150391,0.999023,0.129395,0.029785,0.305176,0.122070,-0.305176,-0.208252,0.636414,0.287567,0.684723,-82.468872,141.921387
2830,0.978027,0.062012,0.254395,-0.549316,0.061035,-1.892090,-0.174622,-0.604645,0.098358,-0.770844,-75.140991,144.168091,1.003906,-0.074219,-0.147949,0.183105,0.610352,0.000000,0.075226,-0.760773,-0.035645,-0.643616,-79.958496,-14.150391,0.999023,0.129395,0.029785,0.305176,0.122070,-0.305176,-0.208252,0.636414,0.287567,0.684723,-82.468872,141.921387
2840,0.974609,0.062988,0.255859,-0.488281,-0.732422,-1.647949,-0.175018,-0.604767,0.098206,-0.770691,-75.140991,143.959351,1.011230,-0.066406,-0.163086,0.000000,0.427246,-0.122070,0.075226,-0.760681,-0.035675,-0.643738,-79.980469,-14.166870,0.999023,0.131348,0.028809,0.000000,0.183105,-0.366211,-0.207947,0.636383,0.287384,0.684937,-82.452393,141.965332
2850,0.974609,0.062988,0.255859,-0.488281,-0.732422,-1.647949,-0.175018,-0.604767,0.098206,-0.770691,-75.140991,143.959351,1.011230,-0.066406,-0.163086,0.000000,0.427246,-0.122070,0.075226,-0.760681,-0.035675,-0.643738,-79.980469,-14.166870,0.999023,0.131348,0.028809,0.000000,0.183105,-0.366211,-0.207947,0.636383,0.287384,0.684937,-82.452393,141.965332
2860,0.974609,0.062988,0.255859,-0.488281,-0.732422,-1.647949,-0.175018,-0.604767,0.098206,-0.770691,-75.140991,143.959351,1.011230,-0.066406,-0.163086,0.000000,0.427246,-0.122070,0.075226,-0.760681,-0.035675,-0.643738,-79.980469,-14.166870,0.999023,0.131348,0.028809,0.000000,0.183105,-0.366211,-0.207947,0.636383,0.287384,0.684937,-82.452393,141.965332
2870,0.974609,0.063477,0.254883,-0.366211,-1.037598,-1.403809,-0.175415,-0.604950,0.098022,-0.770447,-75.151978,143.723145,1.004883,-0.067383,-0.161133,0.000000,0.305176,-0.244141,0.075043,-0.760590,-0.035583,-0.643860,-79.996948,-14.172363,0.990723,0.125488,0.030762,-0.122070,-0.122070,-0.366211,-0.207611,0.636444,0.287201,0.685059,-82.435913,141.959839
2880,0.974609,0.063477,0.254883,-0.366211,-1.037598,-1.403809,-0.175415,-0.604950,0.098022,-0.770447,-75.151978,143.723145,1.004883,-0.067383,-0.161133,0.000000,0.305176,-0.244141,0.075043,-0.760590,-0.035583,-0.643860,-79.996948,-14.172363,0.990723,0.125488,0.030762,-0.122070,-0.122070,-0.366211,-0.207611,0.636444,0.287201,0.685059,-82.435913,141.959839
2890,0.974609,0.063477,0.254883,-0.366211,-1.037598,-1.403809,-0.175415,-0.604950,0.098022,-0.770447,-75.151978,143.723145,1.004883,-0.067383,-0.161133,0.000000,0.305176,-0.244141,0.075043,-0.760590,-0.035583,-0.643860,-79.996948,-14.172363,0.990723,0.125488,0.030762,-0.122070,-0.122070,-0.366211,-0.207611,0.636444,0.287201,0.685059,-82.435913,141.959839
2900,0.974609,0.063477,0.254883,-0.366211,-1.037598,-1.403809,-0.175415,-0.604950,0.098022,-0.770447,-75.151978,143.723145,1.004883,-0.067383,-0.161133,0.000000,0.305176,-0.244141,0.075043,-0.760590,-0.035583,-0.643860,-79.996948,-14.172363,0.990723,0.125488,0.030762,-0.122070,-0.122070,-0.366211,-0.207611,0.636444,0.287201,0.685059,-82.435913,141.959839
2910,0.974609,0.064453,0.252441,-0.183105,-1.037598,-1.098633,-0.175690,-0.605164,0.097900,-0.770233,-75.168457,143.541870,1.005859,-0.077637,-0.165527,0.000000,0.488281,-0.183105,0.075195,-0.760498,-0.035767,-0.643951,-80.013428,-14.161377,0.996582,0.129883,0.025879,0.366211,-0.061035,-0.183105,-0.207489,0.636475,0.287140,0.685089,-82.430420,141.921387
2920,0.974609,0.064453,0.252441,-0.183105,-1.037598,-1.098633,-0.175690,-0.605164,0.097900,-0.770233,-75.168457,143.541870,1.005859,-0.077637,-0.165527,0.000000,0.488281,-0.183105,0.075195,-0.760498,-0.035767,-0.643951,-80.013428,-14.161377,0.996582,0.129883,0.025879,0.366211,-0.061035,-0.183105,-0.207489,0.636475,0.287140,0.685089,-82.430420,141.921387
2930,0.974609,0.064453,0.252441,-0.183105,-1.037598,-1.098633,-0.175690,-0.605164,0.097900,-0.770233,-75.168457,143.541870,1.005859,-0.077637,-0.165527,0.000000,0.488281,-0.183105,0.075195,-0.760498,-0.035767,-0.643951,-80.013428,-14.161377,0.996582,0.129883,0.025879,0.366211,-0.061035,-0.183105,-0.207489,0.636475,0.287140,0.685089,-82.430420,141.921387
2940,0.974609,0.064453,0.252441,-0.183105,-1.037598,-1.098633,-0.175903,-0.605377,0.097778,-0.770050,-75.190430,143.360596,1.003906,-0.069336,-0.166992,0.976562,0.549316,-0.122070,0.075348,-0.760406,-0.035919,-0.644012,-80.024414,-14.177856,0.994141,0.130859,0.023438,-0.183105,-0.061035,-0.305176,-0.207489,0.636414,0.287292,0.685059,-82.419434,141.893921
2950,0.974609,0.064453,0.252441,-0.183105,-1.037598,-1.098633,-0.175903,-0.605377,0.097778,-0.770050,-75.190430,143.360596,1.003906,-0.069336,-0.166992,0.976562,0.549316,-0.122070,0.075348,-0.760406,-0.035919,-0.644012,-80.024414,-14.177856,0.994141,0.130859,0.023438,-0.183105,-0.061035,-0.305176,-0.207489,0.636414,0.287292,0.685059,-82.419434,141.893921
2960,0.974609,0.064453,0.252441,-0.183105,-1.037598,-1.098633,-0.175903,-0.605377,0.097778,-0.770050,-75.190430,143.360596,1.003906,-0.069336,-0.166992,0.976562,0.549316,-0.122070,0.075348,-0.760406,-0.035919,-0.644012,-80.024414,-14.177856,0.994141,0.130859,0.023438,-0.183105,-0.061035,-0.305176,-0.207489,0.636414,0.287292,0.685059,-82.419434,141.893921
2970,0.976074,0.064453,0.250000,-0.061035,-0.732422,-0.915527,-0.176086,-0.605591,0.097626,-0.769836,-75.206909,143.228760,1.000977,-0.062988,-0.166992,0.061035,0.244141,-0.122070,0.075256,-0.760376,-0.035858,-0.644104,-80.035400,-14.194336,0.993652,0.131348,0.027344,0.122070,0.061035,-0.183105,-0.207428,0.636414,0.287354,0.685089,-82.413940,141.882935
2980,0.976074,0.064453,0.250000,-0.061035,-0.732422,-0.915527,-0.176086,-0.605591,0.097626,-0.769836,-75.206909,143.228760,1.000977,-0.062988,-0.166992,0.061035,0.244141,-0.122070,0.075256,-0.760376,-0.035858,-0.644104,-80.035400,-14.194336,0.993652,0.131348,0.027344,0.122070,0.061035,-0.183105,-0.207428,0.636414,0.287354,0.685089,-82.413940,141.882935
2990,0.976074,0.064453,0.250000,-0.061035,-0.732422,-0.915527,-0.176086,-0.605591,0.097626,-0.769836,-75.206909,143.228760,1.000977,-0.062988,-0.166992,0.061035,0.244141,-0.122070,0.075256,-0.760376,-0.035858,-0.644104,-80.035400,-14.194336,0.993652,0.131348,0.027344,0.122070,0.061035,-0.183105,-0.207428,0.636414,0.287354,0.685089,-82.413940,141.882935
3000,0.978027,0.064453,0.248535,0.000000,-0.061035,-0.793457,-0.176239,-0.605682,0.097504,-0.769745,-75.212402,143.118896,1.006348,-0.060547,-0.166992,0.061035,0.610352,-0.244141,0.074799,-0.760345,-0.035522,-0.644196,-80.046387,-14.199829,0.998535,0.126465,0.025391,-0.122070,0.183105,-0.122070,-0.207367,0.636353,0.287354,0.685150,-82.402954,141.893921
3010,0.978027,0.064453,0.248535,0.000000,-0.061035,-0.793457,-0.176239,-0.605682,0.097504,-0.769745,-75.212402,143.118896,1.006348,-0.060547,-0.166992,0.061035,0.610352,-0.244141,0.074799,-0.760345,-0.035522,-0.644196,-80.046387,-14.199829,0.998535,0.126465,0.025391,-0.122070,0.183105,-0.122070,-0.207367,0.636353,0.287354,0.685150,-82.402954,141.893921
3020,0.978027,0.064453,0.248535,0.000000,-0.061035,-0.793457,-0.176239,-0.605682,0.097504,-0.769745,-75.212402,143.118896,1.006348,-0.060547,-0.166992,0.061035,0.610352,-0.244141,0.074799,-0.760345,-0.035522,-0.644196,-80.046387,-14.199829,0.998535,0.126465,0.025391,-0.122070,0.183105,-0.122070,-0.207367,0.636353,0.287354,0.685150,-82.402954,141.893921
3030,0.978516,0.064941,0.246582,0.000000,0.305176,-0.671387,-0.176392,-0.605713,0.097351,-0.769714,-75.206909,143.020020,1.007812,-0.070801,-0.166992,-0.183105,0.061035,-0.305176,0.074615,-0.760315,-0.035400,-0.644226,-80.057373,-14.188843,0.994141,0.132812,0.021973,-0.732422,0.366211,-0.488281,-0.207367,0.636261,0.287445,0.685181,-82.391968,141.948853
3040,0.978516,0.064941,0.246582,0.000000,0.305176,-0.671387,-0.176392,-0.605713,0.097351,-0.769714,-75.206909,143.020020,1.007812,-0.070801,-0.166992,-0.183105,0.061035,-0.305176,0.074615,-0.760315,-0.035400,-0.644226,-80.057373,-14.188843,0.994141,0.132812,0.021973,-0.732422,0.366211,-0.488281,-0.207367,0.636261,0.287445,0.685181,-82.391968,141.948853
3050,0.978516,0.064941,0.246582,0.000000,0.305176,-0.671387,-0.176392,-0.605713,0.097351,-0.769714,-75.206909,143.020020,1.007812,-0.070801,-0.166992,-0.183105,0.061035,-0.305176,0.074615,-0.760315,-0.035400,-0.644226,-80.057373,-14.188843,0.994141,0.132812,0.021973,-0.732422,0.366211,-0.488281,-0.207367,0.636261,0.287445,0.685181,-82.391968,141.948853
3060,0.978516,0.064941,0.246582,0.000000,0.305176,-0.671387,-0.176392,-0.605713,0.097351,-0.769714,-75.206909,143.020020,1.007812,-0.070801,-0.166992,-0.183105,0.061035,-0.305176,0.074615,-0.760315,-0.035400,-0.644226,-80.057373,-14.188843,0.994141,0.132812,0.021973,-0.732422,0.366211,-0.488281,-0.207367,0.636261,0.287445,0.685181,-82.391968,141.948853
3070,0.978516,0.065918,0.243652,-0.061035,0.244141,-0.549316,-0.176514,-0.605682,0.097198,-0.769714,-75.195923,142.948608,1.006836,-0.074219,-0.164062,-1.159668,0.000000,-0.061035,0.074524,-0.760345,-0.035339,-0.644226,-80.051880,-14.161377,0.991699,0.123047,0.030273,-0.610352,0.122070,-0.427246,-0.206909,0.636353,0.287048,0.685425,-82.375488,141.965332
3080,0.978516,0.065918,0.243652,-0.061035,0.244141,-0.549316,-0.176514,-0.605682,0.097198,-0.769714,-75.195923,142.948608,1.006836,-0.074219,-0.164062,-1.159668,0.000000,-0.061035,0.074524,-0.760345,-0.035339,-0.644226,-80.051880,-14.161377,0.991699,0.123047,0.030273,-0.610352,0.122070,-0.427246,-0.206909,0.636353,0.287048,0.685425,-82.375488,141.965332
3090,0.978516,0.065918,0.243652,-0.061035,0.244141,-0.549316,-0.176514,-0.605682,0.097198,-0.769714,-75.195923,142.948608,1.006836,-0.074219,-0.164062,-1.159668,0.000000,-0.061035,0.074524,-0.760345,-0.035339,-0.644226,-80.051880,-14.161377,0.991699,0.123047,0.030273,-0.610352,0.122070,-0.427246,-0.206909,0.636353,0.287048,0.685425,-82.375488,141.965332
3100,0.978516,0.065918,0.243652,-0.061035,0.244141,-0.549316,-0.176575,-0.605713,0.097076,-0.769714,-75.190430,142.882690,1.003906,-0.068848,-0.154785,0.000000,0.671387,-0.305176,0.074493,-0.760254,-0.035400,-0.644318,-80.068359,-14.161377,0.995605,0.132812,0.028320,0.366211,0.244141,-0.366211,-0.206696,0.636322,0.286957,0.685547,-82.364502,141.981812
3110,0.978516,0.065918,0.243652,-0.061035,0.244141,-0.549316,-0.176575,-0.605713,0.097076,-0.769714,-75.190430,142.882690,1.003906,-0.068848,-0.154785,0.000000,0.671387,-0.305176,0.074493,-0.760254,-0.035400,-0.644318,-80.068359,-14.161377,0.995605,0.132812,0.028320,0.366211,0.244141,-0.366211,-0.206696,0.636322,0.286957,0.685547,-82.364502,141.981812
3120,0.978516,0.065918,0.243652,-0.061035,0.244141,-0.549316,-0.176575,-0.605713,0.097076,-0.769714,-75.190430,142.882690,1.003906,-0.068848,-0.154785,0.000000,0.671387,-0.305176,0.074493,-0.760254,-0.035400,-0.644318,-80.068359,-14.161377,0.995605,0.132812,0.028320,0.366211,0.244141,-0.366211,-0.206696,0.636322,0.286957,0.685547,-82.364502,141.981812
3130,0.978027,0.067871,0.242188,-0.305176,-0.427246,-0.366211,-0.176575,-0.605865,0.096985,-0.769592,-75.201416,142.827759,1.003418,-0.067871,-0.163086,0.061035,0.122070,-0.183105,0.074493,-0.760193,-0.035492,-0.644409,-80.084839,-14.150391,0.998047,0.130859,0.027344,-0.122070,0.061035,-0.305176,-0.206604,0.636261,0.286987,0.685608,-82.348022,142.014771
3140,0.978027,0.067871,0.242188,-0.305176,-0.427246,-0.366211,-0.176575,-0.605865,0.096985,-0.769592,-75.201416,142.827759,1.003418,-0.067871,-0.163086,0.061035,0.122070,-0.183105,0.074493,-0.760193,-0.035492,-0.644409,-80.084839,-14.150391,0.998047,0.130859,0.027344,-0.122070,0.061035,-0.305176,-0.206604,0.636261,0.286987,0.685608,-82.348022,142.014771
3150,0.978027,0.067871,0.242188,-0.305176,-0.427246,-0.366211,-0.176575,-0.605865,0.096985,-0.769592,-75.201416,142.827759,1.003418,-0.067871,-0.163086,0.061035,0.122070,-0.183105,0.074493,-0.760193,-0.035492,-0.644409,-80.084839,-14.150391,0.998047,0.130859,0.027344,-0.122070,0.061035,-0.305176,-0.206604,0.636261,0.286987,0.685608,-82.348022,142.014771
3160,0.978027,0.069824,0.239746,-0.610352,-1.464844,-0.122070,-0.176544,-0.606140,0.096954,-0.769379,-75.234375,142.772827,1.010254,-0.064453,-0.165039,-0.366211,0.000000,-0.244141,0.074280,-0.760223,-0.035370,-0.644409,-80.084839,-14.111938,1.001465,0.132812,0.030273,-0.061035,-0.244141,0.427246,-0.206268,0.636322,0.286743,0.685760,-82.337036,142.020264
3170,0.978027,0.069824,0.239746,-0.610352,-1.464844,-0.122070,-0.176544,-0.606140,0.096954,-0.769379,-75.234375,142.772827,1.010254,-0.064453,-0.165039,-0.366211,0.000000,-0.244141,0.074280,-0.760223,-0.035370,-0.644409,-80.084839,-14.111938,1.001465,0.132812,0.030273,-0.061035,-0.244141,0.427246,-0.206268,0.636322,0.286743,0.685760,-82.337036,142.020264
3180,0.978027,0.069824,0.239746,-0.610352,-1.464844,-0.122070,-0.176544,-0.606140,0.096954,-0.769379,-75.234375,142.772827,1.010254,-0.064453,-0.165039,-0.366211,0.000000,-0.244141,0.074280,-0.760223,-0.035370,-0.644409,-80.084839,-14.111938,1.001465,0.132812,0.030273,-0.061035,-0.244141,0.427246,-0.206268,0.636322,0.286743,0.685760,-82.337036,142.020264
3190,0.978027,0.070801,0.244141,-0.976562,-2.197266,0.061035,-0.176453,-0.606628,0.097046,-0.769043,-75.294800,142.706909,1.002441,-0.062012,-0.163086,-0.305176,0.427246,-0.244141,0.073853,-0.760193,-0.035034,-0.644501,-80.090332,-14.122925,0.995605,0.132812,0.027832,0.000000,0.000000,-0.305176,-0.206177,0.636292,0.286774,0.685822,-82.326050,142.020264
3200,0.978027,0.070801,0.244141,-0.976562,-2.197266,0.061035,-0.176453,-0.606628,0.097046,-0.769043,-75.294800,142.706909,1.002441,-0.062012,-0.163086,-0.305176,0.427246,-0.244141,0.073853,-0.760193,-0.035034,-0.644501,-80.090332,-14.122925,0.995605,0.132812,0.027832,0.000000,0.000000,-0.305176,-0.206177,0.636292,0.286774,0.685822,-82.326050,142.020264
3210,0.978027,0.070801,0.244141,-0.976562,-2.197266,0.061035,-0.176453,-0.606628,0.097046,-0.769043,-75.294800,142.706909,1.002441,-0.062012,-0.163086,-0.305176,0.427246,-0.244141,0.073853,-0.760193,-0.035034,-0.644501,-80.090332,-14.122925,0.995605,0.132812,0.027832,0.000000,0.000000,-0.305176,-0.206177,0.636292,0.286774,0.685822,-82.326050,142.020264
3220,0.978027,0.070801,0.244141,-0.976562,-2.197266,0.061035,-0.176453,-0.606628,0.097046,-0.769043,-75.294800,142.706909,1.002441,-0.062012,-0.163086,-0.305176,0.427246,-0.244141,0.073853,-0.760193,-0.035034,-0.644501,-80.090332,-14.122925,0.995605,0.132812,0.027832,0.000000,0.000000,-0.305176,-0.206177,0.636292,0.286774,0.685822,-82.326050,142.020264
3230,0.979980,0.070801,0.243652,-1.220703,-2.624512,0.305176,-0.176422,-0.607056,0.097229,-0.768677,-75.360718,142.646484,1.009277,-0.065918,-0.163086,-0.488281,0.061035,-0.061035,0.073608,-0.760223,-0.034882,-0.644501,-80.095825,-14.095459,0.990723,0.131836,0.025391,-0.366211,0.244141,0.000000,-0.206085,0.636261,0.286713,0.685883,-82.320557,142.058716
3240,0.979980,0.070801,0.243652,-1.220703,-2.624512,0.305176,-0.176422,-0.607056,0.097229,-0.768677,-75.360718,142.646484,1.009277,-0.065918,-0.163086,-0.488281,0.061035,-0.061035,0.073608,-0.760223,-0.034882,-0.644501,-80.095825,-14.095459,0.990723,0.131836,0.025391,-0.366211,0.244141,0.000000,-0.206085,0.636261,0.286713,0.685883,-82.320557,142.058716
3250,0.979980,0.070801,0.243652,-1.220703,-2.624512,0.305176,-0.176422,-0.607056,0.097229,-0.768677,-75.360718,142.646484,1.009277,-0.065918,-0.163086,-0.488281,0.061035,-0.061035,0.073608,-0.760223,-0.034882,-0.644501,-80.095825,-14.095459,0.990723,0.131836,0.025391,-0.366211,0.244141,0.000000,-0.206085,0.636261,0.286713,0.685883,-82.320557,142.058716
3260,0.979980,0.070801,0.243652,-1.220703,-2.624512,0.305176,-0.176361,-0.607666,0.097534,-0.768158,-75.454102,142.591553,1.004883,-0.066406,-0.155762,-0.488281,0.061035,0.000000,0.073608,-0.760193,-0.034912,-0.644562,-80.106812,-14.078979,0.990723,0.134277,0.028809,0.183105,-0.122070,0.122070,-0.205902,0.636322,0.286530,0.685974,-82.320557,142.053223
3270,0.979980,0.070801,0.243652,-1.220703,-2.624512,0.305176,-0.176361,-0.607666,0.097534,-0.768158,-75.454102,142.591553,1.004883,-0.066406,-0.155762,-0.488281,0.061035,0.000000,0.073608,-0.760193,-0.034912,-0.644562,-80.106812,-14.078979,0.990723,0.134277,0.028809,0.183105,-0.122070,0.122070,-0.205902,0.636322,0.286530,0.685974,-82.320557,142.053223
3280,0.979980,0.070801,0.243652,-1.220703,-2.624512,0.305176,-0.176361,-0.607666,0.097534,-0.768158,-75.454102,142.591553,1.004883,-0.066406,-0.155762,-0.488281,0.061035,0.000000,0.073608,-0.760193,-0.034912,-0.644562,-80.106812,-14.078979,0.990723,0.134277,0.028809,0.183105,-0.122070,0.122070,-0.205902,0.636322,0.286530,0.685974,-82.320557,142.053223
3290,0.979492,0.069336,0.246094,-1.281738,-2.868652,0.488281,-0.176331,-0.608185,0.097900,-0.767731,-75.536499,142.553101,1.010742,-0.061523,-0.164062,0.244141,0.000000,-0.061035,0.073425,-0.760193,-0.034790,-0.644562,-80.106812,-14.073486,1.000000,0.133301,0.030273,0.000000,-0.183105,0.061035,-0.205658,0.636414,0.286316,0.686035,-82.320557,142.014771
3300,0.979492,0.069336,0.246094,-1.281738,-2.868652,0.488281,-0.176331,-0.608185,0.097900,-0.767731,-75.536499,142.553101,1.010742,-0.061523,-0.164062,0.244141,0.000000,-0.061035,0.073425,-0.760193,-0.034790,-0.644562,-80.106812,-14.073486,1.000000,0.133301,0.030273,0.000000,-0.183105,0.061035,-0.205658,0.636414,0.286316,0.686035,-82.320557,142.014771
3310,0.979492,0.069336,0.246094,-1.281738,-2.868652,0.488281,-0.176331,-0.608185,0.097900,-0.767731,-75.536499,142.553101,1.010742,-0.061523,-0.164062,0.244141,0.000000,-0.061035,0.073425,-0.760193,-0.034790,-0.644562,-80.106812,-14.073486,1.000000,0.133301,0.030273,0.000000,-0.183105,0.061035,-0.205658,0.636414,0.286316,0.686035,-82.320557,142.014771
3320,0.980957,0.066895,0.245605,-1.220703,-2.929688,0.488281,-0.176300,-0.608673,0.098297,-0.767273,-75.635376,142.514648,1.009766,-0.068848,-0.165527,0.061035,0.061035,-0.122070,0.073364,-0.760193,-0.034760,-0.644562,-80.106812,-14.057007,0.996094,0.127930,0.025879,-0.061035,-0.061035,0.244141,-0.205536,0.636475,0.286163,0.686096,-82.315063,141.998291
3330,0.980957,0.066895,0.245605,-1.220703,-2.929688,0.488281,-0.176300,-0.608673,0.098297,-0.767273,-75.635376,142.514648,1.009766,-0.068848,-0.165527,0.061035,0.061035,-0.122070,0.073364,-0.760193,-0.034760,-0.644562,-80.106812,-14.057007,0.996094,0.127930,0.025879,-0.061035,-0.061035,0.244141,-0.205536,0.636475,0.286163,0.686096,-82.315063,141.998291
3340,0.980957,0.066895,0.245605,-1.220703,-2.929688,0.488281,-0.176300,-0.608673,0.098297,-0.767273,-75.635376,142.514648,1.009766,-0.068848,-0.165527,0.061035,0.061035,-0.122070,0.073364,-0.760193,-0.034760,-0.644562,-80.106812,-14.057007,0.996094,0.127930,0.025879,-0.061035,-0.061035,0.244141,-0.205536,0.636475,0.286163,0.686096,-82.315063,141.998291
3350,0.981934,0.066406,0.243164,-1.159668,-2.868652,0.427246,-0.176331,-0.609253,0.098755,-0.766754,-75.723267,142.481689,1.002930,-0.073730,-0.162598,-0.305176,0.305176,-0.122070,0.073547,-0.760162,-0.034912,-0.644562,-80.106812,-14.057007,0.991699,0.131348,0.021973,-0.122070,0.000000,0.122070,-0.205536,0.636505,0.286163,0.686066,-82.320557,141.976318
3360,0.981934,0.066406,0.243164,-1.159668,-2.868652,0.427246,-0.176331,-0.609253,0.098755,-0.766754,-75.723267,142.481689,1.002930,-0.073730,-0.162598,-0.305176,0.305176,-0.122070,0.073547,-0.760162,-0.034912,-0.644562,-80.106812,-14.057007,0.991699,0.131348,0.021973,-0.122070,0.000000,0.122070,-0.205536,0.636505,0.286163,0.686066,-82.320557,141.976318
3370,0.981934,0.066406,0.243164,-1.159668,-2.868652,0.427246,-0.176331,-0.609253,0.098755,-0.766754,-75.723267,142.481689,1.002930,-0.073730,-0.162598,-0.305176,0.305176,-0.122070,0.073547,-0.760162,-0.034912,-0.644562,-80.106812,-14.057007,0.991699,0.131348,0.021973,-0.122070,0.000000,0.122070,-0.205536,0.636505,0.286163,0.686066,-82.320557,141.976318
3380,0.981934,0.066406,0.243164,-1.159668,-2.868652,0.427246,-0.176331,-0.609253,0.098755,-0.766754,-75.723267,142.481689,1.002930,-0.073730,-0.162598,-0.305176,0.305176,-0.122070,0.073547,-0.760162,-0.034912,-0.644562,-80.106812,-14.057007,0.991699,0.131348,0.021973,-0.122070,0.000000,0.122070,-0.205536,0.636505,0.286163,0.686066,-82.320557,141.976318
